File: examples/mos2-example2/ref/raman_spectra1.dat
#Raman spectra
#Laser energy   1.95 eV
#Raman shift (cm-1), Raman Spectra (XX,YY,ZZ,s+s+,s-s-,XY,YX,s+s-,s-s+,nonpol)
   350.0000  94.7491  94.2717  56.8019  63.4113  63.4113  19.4285  19.6432  50.4035  50.8665  70.5682
   350.2506  95.5509  95.0775  57.3421  64.0144  64.0143  19.6371  19.8558  50.815  51.2774  71.1781
   350.5013  96.3664  95.8971  57.8901  64.6262  64.626  19.8506  20.0735  51.2369  51.6986  71.7985
   350.7519  97.1962  96.731  58.4459  65.2467  65.2465  20.0694  20.2965  51.6693  52.1305  72.4296
   351.0025  98.0404  97.5794  59.0098  65.8763  65.8759  20.2934  20.5248  52.1126  52.5732  73.0716
   351.2531  98.8995  98.4428  59.5818  66.515  66.5145  20.5229  20.7587  52.5672  53.0272  73.7247
   351.5038  99.7738  99.3214  60.1623  67.163  67.1625  20.7581  20.9984  53.0334  53.4928  74.3893
   351.7544  100.664  100.216  60.7512  67.8206  67.8199  20.999  21.244  53.5116  53.9704  75.0654
   352.0050  101.57  101.126  61.3488  68.4878  68.487  21.2461  21.4958  54.0022  54.4604  75.7535
   352.2556  102.492  102.053  61.9553  69.165  69.1641  21.4993  21.7539  54.5055  54.9631  76.4536
   352.5063  103.431  102.996  62.5708  69.8522  69.8512  21.7589  22.0185  55.022  55.479  77.1662
   352.7569  104.387  103.957  63.1956  70.5497  70.5486  22.0251  22.2898  55.5521  56.0086  77.8915
   353.0075  105.361  104.936  63.8297  71.2578  71.2565  22.2982  22.5681  56.0963  56.5522  78.6297
   353.2581  106.352  105.933  64.4735  71.9765  71.9751  22.5784  22.8536  56.655  57.1103  79.3812
   353.5088  107.363  106.948  65.127  72.7062  72.7047  22.8659  23.1466  57.2287  57.6835  80.1462
   353.7594  108.392  107.982  65.7905  73.447  73.4453  23.1609  23.4472  57.8179  58.2721  80.9251
   354.0100  109.441  109.036  66.4642  74.1992  74.1974  23.4637  23.7558  58.4233  58.8769  81.7182
   354.2607  110.51  110.11  67.1483  74.963  74.9611  23.7747  24.0727  59.0452  59.4983  82.5258
   354.5113  111.599  111.205  67.843  75.7386  75.7366  24.094  24.398  59.6843  60.1368  83.3483
   354.7619  112.71  112.321  68.5485  76.5264  76.5242  24.4219  24.7322  60.3412  60.7932  84.186
   355.0125  113.842  113.459  69.2651  77.3265  77.3241  24.7589  25.0755  61.0166  61.468  85.0393
   355.2632  114.996  114.619  69.993  78.1392  78.1367  25.1051  25.4283  61.711  62.1619  85.9086
   355.5138  116.174  115.802  70.7324  78.9648  78.9621  25.4609  25.7909  62.4253  62.8756  86.7942
   355.7644  117.375  117.009  71.4836  79.8036  79.8007  25.8268  26.1636  63.16  63.6098  87.6966
   356.0150  118.6  118.24  72.2468  80.6558  80.6527  26.2029  26.5469  63.916  64.3652  88.6162
   356.2657  119.85  119.496  73.0223  81.5217  81.5184  26.5898  26.9411  64.694  65.1427  89.5533
   356.5163  121.125  120.778  73.8103  82.4016  82.3981  26.9879  27.3467  65.4949  65.9431  90.5086
   356.7669  122.427  122.086  74.6112  83.2959  83.2922  27.3975  27.764  66.3196  66.7672  91.4824
   357.0175  123.756  123.422  75.4252  84.2047  84.2008  27.8191  28.1935  67.1689  67.616  92.4752
   357.2682  125.113  124.785  76.2525  85.1286  85.1245  28.2531  28.6357  68.0437  68.4904  93.4875
   357.5188  126.499  126.178  77.0936  86.0677  86.0634  28.7001  29.0911  68.9452  69.3914  94.5199
   357.7694  127.914  127.6  77.9486  87.0224  87.0179  29.1605  29.5602  69.8744  70.32  95.5728
   358.0201  129.36  129.053  78.8179  87.9931  87.9883  29.635  30.0435  70.8322  71.2773  96.6469
   358.2707  130.837  130.537  79.7019  88.9802  88.9751  30.1239  30.5417  71.82  72.2646  97.7427
   358.5213  132.347  132.054  80.6008  89.9839  89.9786  30.6281  31.0553  72.8389  73.283  98.8608
   358.7719  133.89  133.605  81.515  91.0048  90.9992  31.1479  31.5849  73.8901  74.3338  100.002
   359.0226  135.467  135.191  82.4448  92.043  92.0372  31.6842  32.1312  74.9751  75.4183  101.166
   359.2732  137.081  136.812  83.3906  93.0992  93.093  32.2376  32.6949  76.0952  76.5379  102.355
   359.5238  138.731  138.47  84.3528  94.1736  94.1672  32.8088  33.2768  77.252  77.6942  103.569
   359.7744  140.419  140.167  85.3317  95.2668  95.26  33.3986  33.8776  78.4469  78.8886  104.809
   360.0251  142.146  141.903  86.3277  96.3791  96.3719  34.0078  34.4982  79.6817  80.1229  106.075
   360.2757  143.915  143.68  87.3413  97.5109  97.5035  34.6372  35.1393  80.958  81.3988  107.368
   360.5263  145.725  145.499  88.3729  98.6629  98.655  35.2877  35.802  82.2778  82.7181  108.689
   360.7769  147.578  147.362  89.4228  99.8353  99.8271  35.9603  36.4871  83.6429  84.0828  110.04
   361.0276  149.477  149.271  90.4915  101.029  101.02  36.6559  37.1957  85.0554  85.4948  111.42
   361.2782  151.422  151.226  91.5795  102.244  102.235  37.3757  37.9289  86.5174  86.9565  112.831
   361.5288  153.416  153.23  92.6872  103.481  103.471  38.1206  38.6877  88.0313  88.4699  114.274
   361.7794  155.459  155.284  93.8152  104.741  104.731  38.892  39.4734  89.5995  90.0377  115.749
   362.0301  157.555  157.39  94.9638  106.023  106.013  39.691  40.2873  91.2246  91.6623  117.258
   362.2807  159.704  159.551  96.1337  107.33  107.319  40.519  41.1307  92.9091  93.3465  118.803
   362.5313  161.909  161.767  97.3253  108.661  108.649  41.3773  42.005  94.6562  95.0932  120.383
   362.7820  164.173  164.043  98.5391  110.016  110.004  42.2675  42.9117  96.4687  96.9053  122.001
   363.0326  166.497  166.379  99.7759  111.397  111.385  43.1912  43.8525  98.35  98.7862  123.658
   363.2832  168.883  168.778  101.036  112.805  112.792  44.1499  44.829  100.304  100.739  125.354
   363.5338  171.335  171.242  102.32  114.239  114.226  45.1455  45.8431  102.333  102.768  127.092
   363.7845  173.855  173.776  103.629  115.701  115.687  46.1799  46.8967  104.442  104.877  128.873
   364.0351  176.445  176.38  104.963  117.191  117.176  47.2552  47.9919  106.635  107.07  130.699
   364.2857  179.109  179.059  106.323  118.71  118.694  48.3733  49.1308  108.917  109.351  132.571
   364.5363  181.851  181.815  107.71  120.258  120.242  49.5368  50.3158  111.291  111.726  134.49
   364.7870  184.672  184.651  109.123  121.838  121.821  50.7479  51.5493  113.764  114.198  136.46
   365.0376  187.577  187.573  110.565  123.448  123.43  52.0094  52.8342  116.341  116.774  138.481
   365.2882  190.57  190.582  112.036  125.091  125.072  53.3241  54.1731  119.027  119.46  140.556
   365.5388  193.655  193.684  113.536  126.766  126.747  54.6948  55.5692  121.828  122.261  142.686
   365.7895  196.835  196.882  115.066  128.476  128.456  56.1249  57.0258  124.752  125.184  144.875
   366.0401  200.116  200.181  116.628  130.22  130.199  57.6178  58.5463  127.805  128.237  147.124
   366.2907  203.502  203.586  118.222  132  131.978  59.1772  60.1345  130.994  131.426  149.437
   366.5414  206.998  207.102  119.848  133.817  133.794  60.8071  61.7945  134.329  134.761  151.815
   366.7920  210.61  210.735  121.508  135.672  135.648  62.5118  63.5307  137.818  138.25  154.263
   367.0426  214.344  214.491  123.203  137.565  137.54  64.2958  65.3476  141.471  141.902  156.782
   367.2932  218.206  218.375  124.934  139.499  139.472  66.1641  67.2504  145.297  145.728  159.376
   367.5439  222.203  222.396  126.701  141.473  141.445  68.1221  69.2445  149.308  149.739  162.049
   367.7945  226.342  226.559  128.506  143.49  143.461  70.1755  71.3359  153.516  153.947  164.804
   368.0451  230.631  230.874  130.35  145.55  145.519  72.3307  73.5308  157.933  158.364  167.645
   368.2957  235.078  235.348  132.234  147.655  147.623  74.5944  75.8362  162.574  163.005  170.577
   368.5464  239.693  239.991  134.159  149.806  149.772  76.9739  78.2597  167.454  167.885  173.604
   368.7970  244.485  244.812  136.126  152.004  151.968  79.4773  80.8092  172.59  173.02  176.731
   369.0476  249.464  249.822  138.137  154.251  154.214  82.1132  83.4937  177.999  178.429  179.964
   369.2982  254.642  255.032  140.193  156.548  156.509  84.8911  86.3228  183.7  184.131  183.307
   369.5489  260.032  260.456  142.295  158.897  158.856  87.8213  89.307  189.716  190.147  186.767
   369.7995  265.647  266.106  144.445  161.3  161.256  90.915  92.4577  196.07  196.5  190.352
   370.0501  271.501  271.998  146.643  163.757  163.711  94.1845  95.7874  202.787  203.217  194.066
   370.3008  277.611  278.147  148.893  166.271  166.222  97.6434  99.31  209.894  210.324  197.92
   370.5514  283.993  284.571  151.194  168.843  168.792  101.306  103.04  217.423  217.853  201.92
   370.8020  290.667  291.289  153.549  171.475  171.422  105.19  106.995  225.407  225.837  206.077
   371.0526  297.654  298.323  155.959  174.17  174.113  109.311  111.193  233.884  234.314  210.399
   371.3033  304.976  305.694  158.427  176.928  176.869  113.691  115.653  242.893  243.324  214.899
   371.5539  312.659  313.429  160.954  179.753  179.69  118.35  120.398  252.481  252.912  219.587
   371.8045  320.731  321.556  163.542  182.646  182.58  123.313  125.452  262.698  263.129  224.477
   372.0551  329.221  330.105  166.192  185.61  185.539  128.607  130.844  273.598  274.029  229.583
   372.3058  338.164  339.111  168.908  188.646  188.572  134.262  136.602  285.245  285.676  234.922
   372.5564  347.598  348.612  171.69  191.758  191.679  140.31  142.761  297.706  298.138  240.51
   372.8070  357.564  358.649  174.542  194.947  194.864  146.788  149.359  311.059  311.491  246.366
   373.0576  368.11  369.271  177.466  198.217  198.128  153.739  156.438  325.39  325.822  252.513
   373.3083  379.287  380.53  180.463  201.57  201.476  161.209  164.045  340.796  341.228  258.974
   373.5589  391.154  392.485  183.537  205.01  204.909  169.25  172.233  357.385  357.818  265.776
   373.8095  403.777  405.202  186.691  208.538  208.431  177.92  181.064  375.281  375.714  272.949
   374.0602  417.231  418.758  189.926  212.158  212.044  187.288  190.604  394.622  395.055  280.527
   374.3108  431.599  433.236  193.246  215.874  215.753  197.428  200.93  415.567  416  288.546
   374.5614  446.978  448.734  196.654  219.689  219.559  208.428  212.132  438.295  438.729  297.051
   374.8120  463.477  465.361  200.153  223.607  223.468  220.385  224.308  463.011  463.446  306.089
   375.0627  481.219  483.244  203.747  227.63  227.481  233.411  237.575  489.951  490.386  315.717
   375.3133  500.349  502.526  207.438  231.764  231.605  247.638  252.063  519.386  519.821  325.996
   375.5639  521.03  523.374  211.23  236.013  235.841  263.214  267.925  551.627  552.062  337.001
   375.8145  543.454  545.98  215.127  240.38  240.195  280.312  285.337  587.036  587.472  348.813
   376.0652  567.841  570.568  219.133  244.87  244.671  299.133  304.504  626.035  626.471  361.531
   376.3158  594.45  597.399  223.253  249.489  249.274  319.913  325.665  669.114  669.55  375.267
   376.5664  623.583  626.776  227.49  254.241  254.008  342.926  349.101  716.851  717.286  390.152
   376.8170  655.596  659.061  231.849  259.132  258.879  368.496  375.141  769.924  770.358  406.34
   377.0677  690.91  694.677  236.334  264.168  263.892  397.008  404.177  829.139  829.572  424.013
   377.3183  730.025  734.131  240.952  269.354  269.053  428.916  436.671  895.452  895.883  443.385
   377.5689  773.541  778.026  245.706  274.697  274.368  464.765  473.179  970.008  970.437  464.715
   377.8195  822.176  827.089  250.604  280.205  279.844  505.21  514.366  1054.18  1054.61  488.309
   378.0702  876.798  882.196  255.649  285.883  285.486  551.039  561.038  1149.64  1150.06  514.537
   378.3208  938.463  944.413  260.85  291.741  291.302  603.213  614.169  1258.4  1258.82  543.848
   378.5714  1008.46  1015.04  266.212  297.786  297.301  662.9  674.953  1382.93  1383.34  576.788
   378.8221  1088.37  1095.68  271.743  304.029  303.489  731.537  744.85  1526.26  1526.66  614.026
   379.0727  1180.15  1188.3  277.449  310.479  309.875  810.893  825.664  1692.14  1692.52  656.388
   379.3233  1286.23  1295.35  283.338  317.147  316.47  903.163  919.629  1885.19  1885.56  704.892
   379.5739  1409.6  1419.87  289.42  324.046  323.282  1011.07  1029.52  2111.2  2111.55  760.805
   379.8246  1554.04  1565.65  295.704  331.189  330.323  1138.02  1158.8  2377.33  2377.66  825.702
   380.0752  1724.19  1737.39  302.197  338.591  337.604  1288.23  1311.77  2692.55  2692.84  901.545
   380.3258  1925.82  1940.93  308.913  346.27  345.139  1466.95  1493.77  3067.91  3068.15  990.762
   380.5764  2165.97  2183.34  315.861  354.244  352.941  1680.6  1711.34  3516.95  3517.13  1096.33
   380.8271  2452.95  2473.05  323.053  362.535  361.025  1936.89  1972.34  4055.78  4055.89  1221.81
   381.0777  2796.11  2819.47  330.504  371.167  369.408  2244.64  2285.74  4702.68  4702.71  1371.29
   381.3283  3204.82  3232.09  338.226  380.164  378.108  2613.15  2661.02  5476.44  5476.37  1549.08
   381.5789  3686.14  3718.01  346.233  389.551  387.141  3050.37  3106.26  6392.12  6391.97  1758.85
   381.8296  4240.01  4277.18  354.54  399.343  396.523  3559.15  3624.39  7452.53  7452.33  2001.93
   382.0802  4851.3  4894.34  363.156  409.545  406.265  4130.53  4206.27  8633.39  8633.24  2274.2
   382.3308  5479.3  5528.35  372.087  420.128  416.364  4733.99  4820.81  9862.93  9863.03  2561.59
   382.5815  6050.15  6104.66  381.33  431.026  426.805  5308.16  5405.52  11005  11005.6  2835.78
   382.8321  6464.13  6522.58  390.877  442.135  437.558  5761.79  5867.5  11867.4  11868.9  3054.67
   383.0827  6628.03  6687.99  400.717  453.344  448.591  5997.17  6107.21  12258  12260.5  3173.19
   383.3333  6501.54  6560.17  410.851  464.598  459.892  5953.98  6063.24  12075.5  12078.9  3163.49
   383.5840  6121.12  6175.96  421.304  475.937  471.492  5643.8  5747.36  11368.4  11372.5  3030.96
   383.8346  5578.36  5627.82  432.116  487.488  483.452  5143.08  5237.45  10305.7  10310  2810.89
   384.0852  4973.71  5017.19  443.338  499.407  495.85  4551.61  4635.12  9089.07  9093.29  2549.38
   384.3358  4382.83  4420.46  455.014  511.829  508.754  3952.89  4025.4  7878.56  7882.44  2284.98
   384.5865  3848.15  3880.48  467.184  524.849  522.219  3398.35  3460.68  6768.57  6772.02  2041.46
   384.8371  3385.94  3413.65  479.88  538.524  536.286  2910.9  2964.27  5798.47  5801.48  1829.42
   385.0877  2996.86  3020.67  493.132  552.892  550.988  2495.03  2540.75  4973.41  4976.02  1650.96
   385.3383  2674.15  2694.7  506.967  567.98  566.356  2145.78  2185.09  4281.56  4283.82  1503.82
   385.5890  2408.53  2426.36  521.416  583.811  582.422  1854.52  1888.47  3704.83  3706.81  1384.05
   385.8396  2190.66  2206.24  536.511  600.413  599.22  1611.96  1641.46  3224.48  3226.21  1287.4
   386.0902  2012.22  2025.92  552.287  617.815  616.785  1409.58  1435.36  2823.48  2825.01  1209.98
   386.3409  1866.16  1878.29  568.781  636.052  635.16  1240.07  1262.74  2487.34  2488.71  1148.44
   386.5915  1746.71  1757.52  586.035  655.164  654.389  1097.37  1117.41  2204.12  2205.34  1100.03
   386.8421  1649.21  1658.91  604.094  675.196  674.521  976.556  994.38  1964.11  1965.23  1062.54
   387.0927  1569.94  1578.68  623.006  696.199  695.609  873.676  889.611  1759.54  1760.56  1034.18
   387.3434  1505.9  1513.84  642.824  718.228  717.712  785.551  799.867  1584.14  1585.08  1013.54
   387.5940  1454.73  1461.98  663.606  741.345  740.893  709.627  722.548  1432.89  1433.76  999.51
   387.8446  1414.52  1421.18  685.413  765.617  765.221  643.849  655.562  1301.73  1302.55  991.192
   388.0952  1383.76  1389.91  708.313  791.117  790.771  586.556  597.216  1187.4  1188.16  987.892
   388.3459  1361.24  1366.94  732.38  817.926  817.624  536.399  546.138  1087.22  1087.94  989.063
   388.5965  1345.97  1351.3  757.693  846.131  845.869  492.277  501.205  999.033  999.719  994.276
   388.8471  1337.2  1342.19  784.338  875.829  875.602  453.285  461.497  921.042  921.696  1003.2
   389.0977  1334.29  1339  812.409  907.124  906.929  418.679  426.255  851.774  852.4  1015.59
   389.3484  1336.78  1341.24  842.01  940.129  939.965  387.839  394.848  790.006  790.607  1031.27
   389.5990  1344.29  1348.52  873.254  974.971  974.833  360.25  366.753  734.714  735.293  1050.1
   389.8496  1356.52  1360.57  906.261  1011.78  1011.67  335.48  341.527  685.041  685.601  1072.02
   390.1003  1373.28  1377.17  941.168  1050.72  1050.63  313.164  318.801  640.265  640.808  1096.98
   390.3509  1394.44  1398.19  978.121  1091.94  1091.88  292.993  298.26  599.772  600.299  1125.01
   390.6015  1419.92  1423.55  1017.28  1135.63  1135.59  274.707  279.638  563.043  563.555  1156.13
   390.8521  1449.69  1453.23  1058.83  1181.98  1181.96  258.08  262.705  529.63  530.13  1190.43
   391.1028  1483.79  1487.25  1102.96  1231.22  1231.22  242.92  247.268  499.152  499.64  1228.02
   391.3534  1522.3  1525.7  1149.9  1283.59  1283.6  229.063  233.156  471.279  471.756  1269.04
   391.6040  1565.35  1568.71  1199.87  1339.35  1339.38  216.364  220.224  445.726  446.193  1313.67
   391.8546  1613.12  1616.44  1253.15  1398.8  1398.85  204.701  208.346  422.245  422.704  1362.12
   392.1053  1665.82  1669.13  1310.04  1462.28  1462.35  193.964  197.411  400.621  401.071  1414.63
   392.3559  1723.73  1727.04  1370.85  1530.15  1530.23  184.058  187.324  380.665  381.106  1471.5
   392.6065  1787.18  1790.5  1435.97  1602.81  1602.92  174.903  178  362.211  362.645  1533.06
   392.8571  1856.56  1859.91  1505.8  1680.74  1680.86  166.423  169.365  345.113  345.54  1599.7
   393.1078  1932.32  1935.7  1580.81  1764.44  1764.59  158.555  161.353  329.244  329.664  1671.85
   393.3584  2014.98  2018.42  1661.51  1854.5  1854.66  151.243  153.906  314.488  314.902  1750
   393.6090  2105.15  2108.65  1748.48  1951.57  1951.75  144.435  146.973  300.746  301.153  1834.73
   393.8596  2203.51  2207.1  1842.4  2056.38  2056.58  138.086  140.508  287.927  288.328  1926.69
   394.1103  2310.87  2314.56  1944.01  2169.77  2169.99  132.158  134.47  275.951  276.346  2026.61
   394.3609  2428.14  2431.94  2054.15  2292.69  2292.94  126.613  128.824  264.747  265.136  2135.33
   394.6115  2556.37  2560.3  2173.81  2426.23  2426.51  121.421  123.536  254.25  254.633  2253.83
   394.8622  2696.77  2700.86  2304.1  2571.64  2571.93  116.551  118.577  244.402  244.78  2383.21
   395.1128  2850.74  2855.01  2446.29  2730.32  2730.65  111.979  113.921  235.152  235.525  2524.76
   395.3634  3019.91  3024.37  2601.85  2903.94  2904.29  107.681  109.544  226.454  226.82  2679.95
   395.6140  3206.14  3210.83  2772.49  3094.38  3094.77  103.637  105.424  218.263  218.624  2850.49
   395.8647  3411.64  3416.57  2960.19  3303.86  3304.28  99.8259  101.543  210.544  210.898  3038.36
   396.1153  3638.93  3644.15  3167.24  3534.94  3535.39  96.2321  97.8833  203.26  203.608  3245.9
   396.3659  3891.04  3896.57  3396.35  3790.64  3791.14  92.8397  94.4282  196.38  196.722  3475.82
   396.6165  4171.47  4177.36  3650.69  4074.5  4075.04  89.6345  91.1637  189.876  190.211  3731.32
   396.8672  4484.4  4490.7  3934.02  4390.7  4391.3  86.6037  88.0769  183.723  184.05  4016.18
   397.1178  4834.78  4841.54  4250.78  4744.22  4744.87  83.7358  85.1558  177.895  178.215  4334.89
   397.3684  5228.53  5235.81  4606.29  5140.99  5141.7  81.0202  82.3898  172.373  172.684  4692.83
   397.6190  5672.75  5680.62  5006.91  5588.11  5588.89  78.4475  79.7691  167.136  167.438  5096.42
   397.8697  6175.99  6184.53  5460.34  6094.17  6095.03  76.0091  77.2851  162.167  162.459  5553.42
   398.1203  6748.64  6757.95  5975.89  6669.55  6670.49  73.6972  74.9299  157.449  157.731  6073.24
   398.3709  7403.35  7413.54  6564.9  7326.92  7327.97  71.5052  72.6966  152.97  153.239  6667.35
   398.6216  8155.63  8166.84  7241.29  8081.81  8082.98  69.4269  70.5789  148.714  148.97  7349.79
   398.8722  9024.58  9036.97  8022.19  8953.35  8954.64  67.4572  68.5716  144.672  144.912  8137.87
   399.1228  10033.8  10047.6  8928.8  9965.18  9966.62  65.5919  66.6703  140.834  141.056  9053.02
   399.3734  11212.8  11228.1  9987.44  11146.7  11148.3  63.8273  64.8714  137.19  137.391  10121.8
   399.6241  12597.9  12615.2  11230.9  12534.5  12536.3  62.1612  63.1723  133.734  133.912  11377.4
   399.8747  14234.9  14254.4  12700.1  14174.1  14176.2  60.5921  61.5715  130.461  130.611  12861.1
   400.1253  16180.2  16202.4  14445.6  16122.3  16124.7  59.1197  60.0688  127.367  127.485  14624
   400.3759  18503.5  18528.9  16529.9  18448.5  18451.3  57.7452  58.665  124.451  124.53  16729.4
   400.6266  21288.8  21317.9  19028.4  21237  21240.1  56.471  57.3625  121.715  121.748  19253.2
   400.8772  24633.8  24667.6  22028.7  24585.5  24589.1  55.301  56.1651  119.159  119.137  22284
   401.1278  28644.5  28683.8  25625.7  28599.9  28604.2  54.2397  55.0773  116.789  116.701  25917.8
   401.3784  33418.6  33464.4  29907  33378.2  33383.1  53.2914  54.1032  114.607  114.441  30243.1
   401.6291  39009.6  39063.1  34920.7  38973.8  38979.6  52.4573  53.2439  112.614  112.357  35308.5
   401.8797  45360.2  45422.5  40615.4  45329.5  45336.2  51.7302  52.4922  110.797  110.437  41061.9
   402.1303  52198.2  52269.9  46747  52172.7  52180.5  51.0869  51.825  109.125  108.654  47256.8
   402.3810  58922.1  59003  52776.2  58901.7  58910.5  50.4796  51.1946  107.531  106.951  53348.3
   402.6316  64566.6  64655.2  57837.8  64550.7  64560.3  49.8328  50.526  105.914  105.241  58462
   402.8822  67994.2  68087.6  60911.7  67981.4  67991.6  49.0583  49.7312  104.154  103.425  61567.5
   403.1328  68354.7  68448.6  61235.9  68343.2  68353.4  48.0896  48.7442  102.161  101.426  61894.5
   403.3835  65551.2  65641.1  58723.2  65538.9  65548.7  46.9177  47.5559  99.9223  99.2314  59355.3
   403.6341  60298.5  60381.3  54014.9  60284.1  60293.1  45.5948  46.2182  97.5062  96.8988  54597.5
   403.8847  53717.2  53790.9  48115.2  53699.7  53707.8  44.2042  44.814  95.0224  94.5201  48636
   404.1353  46837.3  46901.5  41947.9  46816.6  46823.6  42.8223  43.4193  92.5721  92.1796  42404
   404.3860  40343.4  40398.6  36126.7  40319.7  40325.7  41.4997  42.0841  90.2213  89.9324  36521.8
   404.6366  34571.6  34618.9  30952.8  34545.3  34550.4  40.2603  40.8323  88.0013  87.8044  31293.6
   404.8872  29616.7  29657.2  26511.2  29588.3  29592.7  39.11  39.6699  85.919  85.801  26805.5
   405.1378  25442.6  25477.3  22769.7  25412.4  25416.2  38.0448  38.5929  83.9683  83.9166  23024.6
   405.3885  21957.3  21987.2  19645.6  21925.8  21929.1  37.0568  37.593  82.1376  82.1412  19867.7
   405.6391  19054.8  19080.7  17044.1  19022.3  19025.1  36.1366  36.6613  80.4138  80.4634  17238.7
   405.8897  16634.8  16657.4  14875.1  16601.6  16604  35.2757  35.789  78.7849  78.8726  15046.8
   406.1404  14610  14629.9  13060.4  14576.3  14578.5  34.4666  34.9688  77.24  77.3595  13213
   406.3910  12907.8  12925.3  11534.9  12873.7  12875.6  33.7026  34.194  75.7699  75.9161  11671.2
   406.6416  11468.8  11484.3  10245.3  11434.4  11436.1  32.9786  33.4594  74.3669  74.5355  10368
   406.8922  10245.2  10259  9148.85  10210.7  10212.2  32.2901  32.7605  73.0244  73.2119  9259.82
   407.1429  9198.6  9210.95  8211.08  9164.12  9165.47  31.6332  32.0936  71.7369  71.9405  8312.01
   407.3935  8298.2  8309.31  7404.36  8263.77  8264.99  31.0051  31.4557  70.4998  70.7173  7496.63
   407.6441  7519.19  7529.23  6706.45  7484.86  7485.96  30.403  30.844  69.3092  69.5385  6791.2
   407.8947  6841.55  6850.65  6099.41  6807.36  6808.36  29.8248  30.2565  68.1617  68.4012  6177.58
   408.1454  6249.03  6257.31  5568.67  6215.02  6215.93  29.2686  29.6913  67.0543  67.3027  5641.08
   408.3960  5728.4  5735.96  5102.36  5694.59  5695.42  28.7328  29.1467  65.9845  66.2406  5169.68
   408.6466  5268.81  5275.73  4690.77  5235.22  5235.99  28.216  28.6214  64.9501  65.2129  4753.57
   408.8972  4861.31  4867.67  4325.87  4827.97  4828.68  27.7169  28.114  63.9488  64.2176  4384.65
   409.1479  4498.51  4504.37  4001.03  4465.43  4466.08  27.2345  27.6235  62.9791  63.253  4056.22
   409.3985  4174.24  4179.64  3710.71  4141.42  4142.02  26.7679  27.149  62.0392  62.3177  3762.67
   409.6491  3883.33  3888.33  3450.3  3850.78  3851.35  26.316  26.6895  61.1276  61.4102  3499.35
   409.8997  3621.44  3626.08  3215.9  3589.18  3589.7  25.8782  26.2443  60.243  60.5291  3262.31
   410.1504  3384.9  3389.21  3004.21  3352.92  3353.41  25.4538  25.8126  59.3841  59.6734  3048.22
   410.4010  3170.59  3174.61  2812.45  3138.89  3139.35  25.042  25.3938  58.5497  58.842  2854.27
   410.6516  2975.85  2979.59  2638.21  2944.44  2944.86  24.6423  24.9872  57.7389  58.0337  2678.04
   410.9023  2798.4  2801.89  2479.47  2767.27  2767.67  24.2542  24.5924  56.9506  57.2476  2517.47
   411.1529  2636.27  2639.54  2334.45  2605.42  2605.8  23.877  24.2087  56.1838  56.4828  2370.77
   411.4035  2487.76  2490.83  2201.65  2457.2  2457.56  23.5104  23.8358  55.4377  55.7385  2236.41
   411.6541  2351.42  2354.3  2079.74  2321.14  2321.48  23.154  23.4731  54.7114  55.0139  2113.07
   411.9048  2225.96  2228.66  1967.58  2195.96  2196.28  22.8072  23.1203  54.0043  54.3082  1999.58
   412.1554  2110.26  2112.8  1864.16  2080.54  2080.84  22.4697  22.777  53.3156  53.6208  1894.93
   412.4060  2003.35  2005.74  1768.61  1973.9  1974.18  22.1412  22.4427  52.6445  52.9509  1798.23
   412.6566  1904.36  1906.61  1680.15  1875.18  1875.44  21.8212  22.1172  51.9905  52.2979  1708.7
   412.9073  1812.54  1814.66  1598.11  1783.62  1783.87  21.5095  21.8001  51.3528  51.6612  1625.67
   413.1579  1727.21  1729.21  1521.89  1698.55  1698.79  21.2058  21.4911  50.731  51.0402  1548.51
   413.4085  1647.78  1649.67  1450.96  1619.38  1619.61  20.9098  21.1899  50.1245  50.4344  1476.7
   413.6591  1573.72  1575.51  1384.83  1545.58  1545.8  20.6212  20.8962  49.5328  49.8433  1409.75
   413.9098  1504.57  1506.26  1323.09  1476.67  1476.88  20.3397  20.6098  48.9552  49.2664  1347.24
   414.1604  1439.9  1441.5  1265.36  1412.25  1412.45  20.065  20.3304  48.3914  48.7031  1288.78
   414.4110  1379.32  1380.84  1211.31  1351.92  1352.11  19.7971  20.0577  47.8409  48.1531  1234.04
   414.6617  1322.52  1323.95  1160.62  1295.35  1295.53  19.5355  19.7916  47.3033  47.6158  1182.7
   414.9123  1269.17  1270.53  1113.04  1242.24  1242.41  19.2802  19.5318  46.7781  47.091  1134.5
   415.1629  1219.01  1220.31  1068.3  1192.31  1192.48  19.0309  19.2781  46.265  46.5781  1089.18
   415.4135  1171.79  1173.02  1026.19  1145.31  1145.48  18.7874  19.0303  45.7635  46.0769  1046.52
   415.6642  1127.29  1128.45  986.514  1101.03  1101.18  18.5495  18.7883  45.2732  45.5869  1006.31
   415.9148  1085.29  1086.39  949.081  1059.25  1059.4  18.3171  18.5518  44.7939  45.1077  968.379
   416.1654  1045.62  1046.67  913.729  1019.8  1019.94  18.0899  18.3206  44.3252  44.6392  932.551
   416.4160  1008.11  1009.1  880.306  982.494  982.631  17.8678  18.0946  43.8668  44.1808  898.675
   416.6667  972.6  973.544  848.676  947.193  947.325  17.6507  17.8737  43.4183  43.7324  866.613
   416.9173  938.956  939.853  818.714  913.752  913.88  17.4384  17.6577  42.9795  43.2936  836.237
   417.1679  907.049  907.9  790.303  882.044  882.167  17.2307  17.4464  42.55  42.8642  807.433
   417.4185  876.76  877.569  763.341  851.952  852.071  17.0275  17.2396  42.1296  42.4438  780.093
   417.6692  847.983  848.751  737.729  823.368  823.482  16.8287  17.0374  41.718  42.0322  754.12
   417.9198  820.619  821.348  713.381  796.193  796.304  16.6342  16.8394  41.315  41.6291  729.425
   418.1704  794.576  795.269  690.213  770.337  770.444  16.4437  16.6456  40.9203  41.2344  705.926
   418.4211  769.772  770.43  668.153  745.716  745.819  16.2573  16.456  40.5336  40.8476  683.546
   418.6717  746.129  746.753  647.129  722.252  722.352  16.0748  16.2702  40.1548  40.4688  662.217
   418.9223  723.575  724.168  627.08  699.875  699.971  15.896  16.0883  39.7837  40.0975  641.873
   419.1729  702.046  702.607  607.944  678.519  678.612  15.7209  15.9102  39.4199  39.7336  622.454
   419.4236  681.478  682.011  589.669  658.122  658.212  15.5494  15.7357  39.0634  39.3769  603.907
   419.6742  661.818  662.323  572.203  638.629  638.716  15.3813  15.5647  38.7138  39.0273  586.178
   419.9248  643.01  643.489  555.499  619.986  620.071  15.2166  15.3971  38.3711  38.6844  569.222
   420.1754  625.008  625.461  539.515  602.146  602.228  15.0552  15.2329  38.035  38.3481  552.993
   420.4261  607.766  608.194  524.208  585.063  585.143  14.897  15.0719  37.7053  38.0183  537.451
   420.6767  591.241  591.646  509.542  568.694  568.772  14.7419  14.914  37.382  37.6947  522.557
   420.9273  575.394  575.777  495.481  553.002  553.077  14.5897  14.7593  37.0647  37.3773  508.277
   421.1779  560.189  560.551  481.993  537.948  538.021  14.4406  14.6075  36.7534  37.0658  494.577
   421.4286  545.592  545.932  469.047  523.499  523.57  14.2943  14.4587  36.4479  36.76  481.425
   421.6792  531.57  531.89  456.614  509.623  509.692  14.1508  14.3127  36.148  36.4599  468.794
   421.9298  518.093  518.395  444.668  496.29  496.358  14.0099  14.1694  35.8536  36.1653  456.655
   422.1805  505.134  505.417  433.184  483.473  483.538  13.8718  14.0289  35.5646  35.8761  444.984
   422.4311  492.667  492.932  422.138  471.145  471.208  13.7362  13.8909  35.2808  35.5921  433.758
   422.6817  480.666  480.914  411.508  459.281  459.343  13.6031  13.7555  35.0021  35.3131  422.952
   422.9323  469.109  469.341  401.274  447.859  447.919  13.4725  13.6226  34.7284  35.0391  412.548
   423.1830  457.974  458.191  391.416  436.856  436.915  13.3442  13.4922  34.4594  34.7699  402.526
   423.4336  447.241  447.442  381.916  426.254  426.311  13.2183  13.3641  34.1953  34.5055  392.866
   423.6842  436.891  437.077  372.757  416.032  416.088  13.0947  13.2383  33.9357  34.2456  383.551
   423.9348  426.905  427.078  363.923  406.173  406.227  12.9732  13.1147  33.6806  33.9903  374.566
   424.1855  417.267  417.426  355.399  396.659  396.712  12.8539  12.9934  33.4298  33.7393  365.895
   424.4361  407.961  408.106  347.17  387.475  387.527  12.7368  12.8742  33.1834  33.4925  357.524
   424.6867  398.971  399.104  339.224  378.606  378.657  12.6216  12.7571  32.9411  33.25  349.438
   424.9373  390.284  390.404  331.546  370.037  370.087  12.5085  12.642  32.7029  33.0115  341.626
   425.1880  381.886  381.994  324.126  361.756  361.804  12.3973  12.5289  32.4686  32.777  334.074
   425.4386  373.763  373.861  316.952  353.749  353.796  12.2881  12.4178  32.2383  32.5463  326.772
   425.6892  365.906  365.992  310.013  346.005  346.051  12.1807  12.3086  32.0117  32.3195  319.708
   425.9398  358.301  358.376  303.299  338.511  338.556  12.0751  12.2012  31.7889  32.0963  312.872
   426.1905  350.938  351.002  296.8  331.258  331.302  11.9713  12.0956  31.5696  31.8768  306.255
   426.4411  343.807  343.861  290.508  324.236  324.279  11.8693  11.9918  31.3539  31.6608  299.847
   426.6917  336.898  336.943  284.413  317.434  317.476  11.7689  11.8897  31.1416  31.4482  293.64
   426.9424  330.202  330.238  278.508  310.843  310.884  11.6702  11.7893  30.9328  31.239  287.625
   427.1930  323.711  323.737  272.785  304.455  304.496  11.5731  11.6906  30.7272  31.0332  281.794
   427.4436  317.415  317.433  267.236  298.262  298.302  11.4777  11.5935  30.5248  30.8305  276.141
   427.6942  311.308  311.317  261.855  292.256  292.295  11.3837  11.4979  30.3256  30.631  270.657
   427.9449  305.382  305.383  256.634  286.429  286.467  11.2913  11.4039  30.1295  30.4345  265.336
   428.1955  299.63  299.622  251.567  280.775  280.812  11.2003  11.3114  29.9363  30.2411  260.172
   428.4461  294.044  294.029  246.649  275.286  275.322  11.1108  11.2204  29.7462  30.0506  255.158
   428.6967  288.619  288.596  241.874  269.956  269.991  11.0227  11.1308  29.5589  29.863  250.29
   428.9474  283.349  283.319  237.236  264.779  264.814  10.936  11.0427  29.3744  29.6783  245.56
   429.1980  278.227  278.189  232.729  259.75  259.784  10.8507  10.9559  29.1927  29.4963  240.965
   429.4486  273.248  273.204  228.35  254.862  254.896  10.7667  10.8704  29.0137  29.317  236.498
   429.6992  268.407  268.356  224.093  250.111  250.144  10.684  10.7863  28.8374  29.1403  232.156
   429.9499  263.698  263.641  219.954  245.491  245.524  10.6025  10.7035  28.6636  28.9662  227.933
   430.2005  259.118  259.054  215.928  240.998  241.03  10.5223  10.6219  28.4924  28.7947  223.826
   430.4511  254.66  254.59  212.012  236.628  236.659  10.4433  10.5416  28.3236  28.6256  219.83
   430.7018  250.322  250.246  208.201  232.374  232.405  10.3655  10.4625  28.1573  28.4589  215.941
   430.9524  246.098  246.016  204.492  228.235  228.265  10.2889  10.3846  27.9934  28.2947  212.155
   431.2030  241.985  241.897  200.881  224.205  224.234  10.2134  10.3078  27.8318  28.1328  208.469
   431.4536  237.978  237.885  197.365  220.28  220.309  10.139  10.2322  27.6724  27.9731  204.879
   431.7043  234.075  233.976  193.94  216.458  216.486  10.0657  10.1577  27.5153  27.8157  201.382
   431.9549  230.271  230.167  190.604  212.734  212.762  9.99353  10.0843  27.3604  27.6605  197.974
   432.2055  226.564  226.455  187.352  209.105  209.133  9.92238  10.0119  27.2077  27.5074  194.654
   432.4561  222.949  222.835  184.183  205.569  205.595  9.85225  9.94062  27.057  27.3564  191.417
   432.7068  219.425  219.306  181.094  202.121  202.147  9.78314  9.87035  26.9084  27.2075  188.261
   432.9574  215.987  215.863  178.082  198.759  198.785  9.71501  9.80108  26.7618  27.0606  185.183
   433.2080  212.633  212.505  175.144  195.48  195.506  9.64785  9.73281  26.6172  26.9157  182.181
   433.4586  209.361  209.228  172.279  192.282  192.307  9.58165  9.6655  26.4746  26.7727  179.252
   433.7093  206.167  206.03  169.483  189.161  189.186  9.51637  9.59913  26.3338  26.6316  176.394
   433.9599  203.049  202.908  166.754  186.116  186.14  9.45201  9.5337  26.195  26.4924  173.605
   434.2105  200.006  199.86  164.091  183.143  183.167  9.38854  9.46918  26.0579  26.355  170.882
   434.4612  197.033  196.884  161.491  180.242  180.265  9.32595  9.40555  25.9226  26.2194  168.224
   434.7118  194.13  193.977  158.952  177.408  177.431  9.26422  9.3428  25.7891  26.0856  165.627
   434.9624  191.294  191.137  156.473  174.641  174.664  9.20334  9.28091  25.6574  25.9535  163.091
   435.2130  188.523  188.362  154.051  171.938  171.96  9.14328  9.21987  25.5273  25.8231  160.614
   435.4637  185.815  185.651  151.685  169.297  169.319  9.08404  9.15965  25.3989  25.6944  158.193
   435.7143  183.168  183  149.373  166.717  166.738  9.02559  9.10024  25.2721  25.5673  155.828
   435.9649  180.581  180.409  147.113  164.195  164.216  8.96793  9.04162  25.1469  25.4418  153.515
   436.2155  178.051  177.876  144.904  161.729  161.75  8.91103  8.98379  25.0233  25.3178  151.255
   436.4662  175.576  175.398  142.745  159.319  159.34  8.85489  8.92673  24.9012  25.1954  149.044
   436.7168  173.156  172.975  140.633  156.963  156.983  8.79948  8.87042  24.7807  25.0745  146.883
   436.9674  170.789  170.604  138.568  154.658  154.678  8.7448  8.81484  24.6616  24.9552  144.768
   437.2180  168.472  168.284  136.548  152.403  152.423  8.69083  8.75999  24.544  24.8372  142.7
   437.4687  166.205  166.014  134.572  150.198  150.217  8.63757  8.70586  24.4278  24.7207  140.676
   437.7193  163.987  163.793  132.638  148.04  148.059  8.58499  8.65242  24.313  24.6056  138.696
   437.9699  161.815  161.618  130.746  145.928  145.946  8.53308  8.59967  24.1997  24.4919  136.757
   438.2206  159.688  159.489  128.894  143.861  143.879  8.48183  8.54759  24.0876  24.3796  134.86
   438.4712  157.606  157.404  127.081  141.837  141.855  8.43124  8.49617  23.9769  24.2685  133.002
   438.7218  155.567  155.362  125.306  139.856  139.874  8.38128  8.4454  23.8675  24.1588  131.183
   438.9724  153.57  153.362  123.568  137.916  137.934  8.33195  8.39527  23.7594  24.0504  129.402
   439.2231  151.613  151.403  121.865  136.016  136.034  8.28324  8.34577  23.6526  23.9432  127.657
   439.4737  149.696  149.484  120.198  134.155  134.172  8.23513  8.29689  23.547  23.8373  125.947
   439.7243  147.818  147.603  118.565  132.332  132.349  8.18761  8.24861  23.4426  23.7326  124.273
   439.9749  145.976  145.759  116.964  130.546  130.563  8.14068  8.20092  23.3394  23.6291  122.632
   440.2256  144.172  143.952  115.396  128.796  128.812  8.09432  8.15382  23.2374  23.5268  121.023
   440.4762  142.403  142.181  113.859  127.08  127.097  8.04853  8.10729  23.1366  23.4256  119.447
   440.7268  140.668  140.444  112.353  125.399  125.415  8.00329  8.06133  23.0369  23.3256  117.902
   440.9774  138.967  138.741  110.876  123.751  123.767  7.9586  8.01592  22.9383  23.2267  116.387
   441.2281  137.299  137.071  109.428  122.135  122.151  7.91444  7.97105  22.8408  23.1289  114.901
   441.4787  135.663  135.433  108.009  120.551  120.566  7.87081  7.92672  22.7444  23.0322  113.444
   441.7293  134.058  133.826  106.616  118.997  119.012  7.82769  7.88292  22.6491  22.9365  112.015
   441.9799  132.484  132.249  105.251  117.473  117.488  7.78509  7.83964  22.5548  22.8419  110.614
   442.2306  130.939  130.702  103.912  115.978  115.993  7.74298  7.79686  22.4615  22.7483  109.239
   442.4812  129.422  129.184  102.597  114.511  114.526  7.70137  7.75459  22.3693  22.6557  107.889
   442.7318  127.934  127.694  101.308  113.072  113.087  7.66024  7.71281  22.278  22.5642  106.566
   442.9825  126.474  126.232  100.043  111.66  111.675  7.61958  7.67151  22.1877  22.4736  105.266
   443.2331  125.04  124.796  98.8014  110.275  110.289  7.57939  7.63069  22.0984  22.3839  103.991
   443.4837  123.632  123.386  97.5828  108.914  108.928  7.53967  7.59033  22.0101  22.2953  102.739
   443.7343  122.249  122.002  96.3865  107.579  107.593  7.50039  7.55044  21.9226  22.2075  101.51
   443.9850  120.892  120.643  95.2121  106.269  106.282  7.46156  7.511  21.8361  22.1207  100.303
   444.2356  119.559  119.308  94.0591  104.982  104.995  7.42317  7.47201  21.7505  22.0347  99.1182
   444.4862  118.249  117.997  92.9268  103.718  103.731  7.38521  7.43345  21.6658  21.9497  97.9545
   444.7368  116.962  116.709  91.8148  102.477  102.49  7.34768  7.39533  21.5819  21.8655  96.8114
   444.9875  115.698  115.443  90.7227  101.258  101.271  7.31056  7.35763  21.4989  21.7822  95.6887
   445.2381  114.456  114.2  89.65  100.061  100.074  7.27385  7.32035  21.4168  21.6998  94.5856
   445.4887  113.236  112.978  88.5961  98.8844  98.8972  7.23755  7.28348  21.3355  21.6181  93.5019
   445.7393  112.037  111.777  87.5607  97.7288  97.7414  7.20164  7.24702  21.255  21.5373  92.437
   445.9900  110.858  110.597  86.5434  96.5933  96.6058  7.16613  7.21095  21.1753  21.4573  91.3906
   446.2406  109.699  109.437  85.5436  95.4775  95.4899  7.131  7.17528  21.0964  21.3781  90.3621
   446.4912  108.56  108.296  84.5611  94.381  94.3931  7.09625  7.13999  21.0183  21.2997  89.3512
   446.7419  107.44  107.175  83.5954  93.3031  93.3152  7.06187  7.10509  20.941  21.2221  88.3575
   446.9925  106.338  106.072  82.6462  92.2437  92.2556  7.02787  7.07055  20.8644  21.1452  87.3806
   447.2431  105.255  104.988  81.713  91.2022  91.2139  6.99422  7.03639  20.7886  21.069  86.4201
   447.4937  104.19  103.922  80.7955  90.1782  90.1898  6.96093  7.00259  20.7135  20.9936  85.4757
   447.7444  103.142  102.873  79.8934  89.1713  89.1828  6.92799  6.96915  20.6391  20.919  84.5469
   447.9950  102.112  101.841  79.0063  88.1812  88.1926  6.8954  6.93605  20.5655  20.845  83.6335
   448.2456  101.098  100.826  78.1339  87.2075  87.2188  6.86315  6.90331  20.4925  20.7718  82.7351
   448.4962  100.101  99.8276  77.2758  86.2499  86.261  6.83123  6.8709  20.4203  20.6992  81.8514
   448.7469  99.1192  98.8452  76.4319  85.3079  85.3189  6.79964  6.83883  20.3487  20.6273  80.982
   448.9975  98.1535  97.8784  75.6016  84.3813  84.3922  6.76838  6.8071  20.2778  20.5561  80.1267
   449.2481  97.2032  96.927  74.7848  83.4696  83.4804  6.73744  6.77569  20.2076  20.4856  79.2851
   449.4987  96.2678  95.9906  73.9812  82.5727  82.5834  6.70681  6.7446  20.138  20.4157  78.457
   449.7494  95.3471  95.0689  73.1904  81.6901  81.7007  6.6765  6.71382  20.0691  20.3465  77.642
   450.0000  94.4409  94.1617  72.4123  80.8216  80.8321  6.64649  6.68336  20.0008  20.2779  76.84