File: examples/mos2-example2/ref/raman_spectra4.dat
#Raman spectra
#Laser energy   2.78 eV
#Raman shift (cm-1), Raman Spectra (XX,YY,ZZ,s+s+,s-s-,XY,YX,s+s-,s-s+,nonpol)
   350.0000  204.547  196.968  39.6439  60.2808  60.6864  124.571  126.227  265.226  266.119  79.2388
   350.2506  207.039  199.374  40.0209  60.8545  61.2638  126.383  128.066  268.926  269.818  80.2294
   350.5013  209.584  201.831  40.4033  61.4365  61.8494  128.238  129.948  272.712  273.602  81.2416
   350.7519  212.183  204.34  40.7913  62.0268  62.4435  130.135  131.873  276.586  277.475  82.2761
   351.0025  214.838  206.904  41.1848  62.6257  63.0462  132.077  133.844  280.552  281.44  83.3334
   351.2531  217.551  209.524  41.5841  63.2334  63.6576  134.065  135.861  284.612  285.499  84.4144
   351.5038  220.324  212.202  41.9891  63.8499  64.278  136.1  137.927  288.77  289.655  85.5196
   351.7544  223.158  214.938  42.4002  64.4754  64.9075  138.185  140.042  293.028  293.912  86.6498
   352.0050  226.055  217.736  42.8173  65.1103  65.5463  140.32  142.208  297.389  298.273  87.8057
   352.2556  229.017  220.597  43.2406  65.7545  66.1945  142.507  144.427  301.858  302.74  88.9881
   352.5063  232.046  223.522  43.6701  66.4084  66.8525  144.747  146.701  306.438  307.318  90.198
   352.7569  235.144  226.515  44.1062  67.072  67.5203  147.044  149.031  311.131  312.011  91.4359
   353.0075  238.314  229.576  44.5487  67.7457  68.1981  149.398  151.42  315.943  316.821  92.703
   353.2581  241.557  232.709  44.998  68.4295  68.8862  151.811  153.869  320.876  321.754  94.0001
   353.5088  244.876  235.915  45.4541  69.1238  69.5848  154.286  156.38  325.936  326.812  95.3281
   353.7594  248.273  239.197  45.9172  69.8287  70.2941  156.824  158.955  331.126  332.001  96.688
   354.0100  251.751  242.557  46.3874  70.5445  71.0142  159.428  161.598  336.45  337.325  98.0809
   354.2607  255.313  245.998  46.8648  71.2713  71.7455  162.1  164.309  341.915  342.788  99.5078
   354.5113  258.961  249.522  47.3496  72.0094  72.4881  164.842  167.091  347.523  348.395  100.97
   354.7619  262.699  253.133  47.8421  72.759  73.2424  167.656  169.947  353.282  354.153  102.468
   355.0125  266.528  256.833  48.3422  73.5205  74.0084  170.547  172.88  359.195  360.065  104.004
   355.2632  270.453  260.626  48.8502  74.2939  74.7866  173.515  175.892  365.268  366.137  105.579
   355.5138  274.476  264.513  49.3662  75.0796  75.5771  176.564  178.986  371.508  372.376  107.194
   355.7644  278.602  268.5  49.8905  75.8779  76.3802  179.697  182.166  377.92  378.787  108.851
   356.0150  282.833  272.589  50.4231  76.6889  77.1961  182.917  185.433  384.51  385.376  110.551
   356.2657  287.173  276.783  50.9644  77.5131  78.0252  186.227  188.792  391.286  392.151  112.295
   356.5163  291.627  281.087  51.5144  78.3506  78.8678  189.631  192.246  398.254  399.118  114.085
   356.7669  296.197  285.505  52.0733  79.2017  79.724  193.132  195.798  405.422  406.285  115.923
   357.0175  300.89  290.041  52.6414  80.0668  80.5943  196.734  199.453  412.797  413.659  117.811
   357.2682  305.708  294.698  53.2188  80.9462  81.4789  200.44  203.214  420.387  421.248  119.75
   357.5188  310.658  299.482  53.8058  81.8402  82.3782  204.255  207.085  428.201  429.061  121.742
   357.7694  315.742  304.397  54.4025  82.749  83.2924  208.184  211.071  436.247  437.106  123.789
   358.0201  320.968  309.449  55.0092  83.6731  84.2219  212.23  215.177  444.535  445.393  125.894
   358.2707  326.34  314.642  55.6262  84.6128  85.1671  216.398  219.406  453.074  453.932  128.058
   358.5213  331.863  319.982  56.2535  85.5684  86.1283  220.694  223.765  461.876  462.732  130.285
   358.7719  337.544  325.475  56.8915  86.5403  87.1059  225.122  228.258  470.949  471.805  132.575
   359.0226  343.39  331.127  57.5404  87.5288  88.1002  229.688  232.892  480.306  481.161  134.932
   359.2732  349.406  336.944  58.2005  88.5344  89.1116  234.398  237.671  489.959  490.813  137.359
   359.5238  355.599  342.933  58.872  89.5575  90.1406  239.257  242.602  499.92  500.774  139.858
   359.7744  361.977  349.101  59.5552  90.5984  91.1875  244.273  247.692  510.202  511.055  142.433
   360.0251  368.547  355.455  60.2504  91.6576  92.2527  249.452  252.947  520.82  521.672  145.085
   360.2757  375.318  362.003  60.9578  92.7355  93.3367  254.802  258.375  531.787  532.639  147.82
   360.5263  382.298  368.754  61.6777  93.8325  94.44  260.328  263.983  543.12  543.971  150.639
   360.7769  389.495  375.716  62.4104  94.9492  95.5629  266.041  269.779  554.834  555.684  153.547
   361.0276  396.92  382.898  63.1563  96.0859  96.706  271.947  275.772  566.947  567.797  156.548
   361.2782  404.582  390.309  63.9156  97.2432  97.8697  278.056  281.971  579.478  580.327  159.646
   361.5288  412.491  397.961  64.6887  98.4215  99.0546  284.377  288.385  592.444  593.294  162.844
   361.7794  420.66  405.863  65.4759  99.6214  100.261  290.92  295.024  605.868  606.717  166.148
   362.0301  429.099  414.028  66.2775  100.843  101.49  297.696  301.9  619.771  620.619  169.562
   362.2807  437.821  422.467  67.0939  102.088  102.741  304.715  309.022  634.174  635.022  173.092
   362.5313  446.84  431.193  67.9256  103.356  104.016  311.99  316.404  649.104  649.952  176.742
   362.7820  456.169  440.22  68.7727  104.648  105.315  319.533  324.058  664.585  665.432  180.519
   363.0326  465.822  449.562  69.6358  105.964  106.638  327.357  331.997  680.644  681.492  184.428
   363.2832  475.817  459.234  70.5153  107.305  107.986  335.477  340.236  697.312  698.16  188.476
   363.5338  486.169  469.253  71.4115  108.672  109.36  343.906  348.789  714.619  715.467  192.67
   363.7845  496.897  479.636  72.3249  110.065  110.76  352.662  357.674  732.598  733.446  197.017
   364.0351  508.019  490.401  73.2559  111.485  112.188  361.762  366.907  751.284  752.132  201.525
   364.2857  519.556  501.567  74.205  112.933  113.643  371.222  376.507  770.714  771.562  206.201
   364.5363  531.528  513.156  75.1727  114.409  115.127  381.064  386.493  790.928  791.777  211.055
   364.7870  543.959  525.19  76.1594  115.915  116.64  391.307  396.887  811.969  812.819  216.096
   365.0376  556.874  537.693  77.1656  117.45  118.183  401.974  407.71  833.883  834.733  221.334
   365.2882  570.298  550.689  78.1919  119.017  119.757  413.087  418.987  856.718  857.569  226.779
   365.5388  584.259  564.207  79.2388  120.615  121.363  424.673  430.743  880.526  881.378  232.444
   365.7895  598.788  578.274  80.3069  122.245  123.001  436.758  443.006  905.364  906.216  238.339
   366.0401  613.916  592.923  81.3967  123.909  124.673  449.372  455.805  931.29  932.144  244.479
   366.2907  629.678  608.187  82.5088  125.607  126.379  462.545  469.172  958.37  959.225  250.877
   366.5414  646.11  624.1  83.6439  127.34  128.12  476.311  483.14  986.673  987.529  257.548
   366.7920  663.254  640.703  84.8025  129.11  129.898  490.706  497.747  1016.27  1017.13  264.509
   367.0426  681.15  658.036  85.9854  130.917  131.713  505.769  513.031  1047.25  1048.11  271.776
   367.2932  699.846  676.145  87.1931  132.762  133.566  521.541  529.035  1079.69  1080.55  279.369
   367.5439  719.39  695.076  88.4265  134.646  135.459  538.068  545.805  1113.69  1114.55  287.307
   367.7945  739.838  714.883  89.6862  136.572  137.392  555.399  563.39  1149.34  1150.21  295.613
   368.0451  761.245  735.622  90.973  138.539  139.367  573.585  581.843  1186.76  1187.63  304.31
   368.2957  783.676  757.353  92.2877  140.548  141.385  592.684  601.223  1226.07  1226.94  313.423
   368.5464  807.198  780.143  93.6311  142.603  143.448  612.758  621.593  1267.38  1268.26  322.981
   368.7970  831.886  804.063  95.004  144.703  145.556  633.875  643.019  1310.85  1311.73  333.012
   369.0476  857.818  829.191  96.4074  146.849  147.71  656.106  665.578  1356.62  1357.51  343.55
   369.2982  885.084  855.611  97.842  149.045  149.914  679.532  689.348  1404.86  1405.75  354.63
   369.5489  913.777  883.417  99.3088  151.29  152.167  704.24  714.419  1455.75  1456.65  366.29
   369.7995  944.002  912.709  100.809  153.586  154.471  730.324  740.886  1509.48  1510.38  378.573
   370.0501  975.872  943.597  102.343  155.936  156.828  757.887  768.855  1566.27  1567.18  391.525
   370.3008  1009.51  976.202  103.913  158.34  159.24  787.043  798.44  1626.35  1627.27  405.196
   370.5514  1045.06  1010.66  105.519  160.801  161.708  817.917  829.768  1689.98  1690.91  419.641
   370.8020  1082.66  1047.11  107.162  163.32  164.234  850.646  862.977  1757.45  1758.38  434.921
   371.0526  1122.48  1085.71  108.844  165.899  166.82  885.379  898.221  1829.07  1830.01  451.103
   371.3033  1164.71  1126.65  110.566  168.54  169.468  922.283  935.667  1905.17  1906.12  468.26
   371.5539  1209.54  1170.11  112.33  171.246  172.179  961.541  975.503  1986.16  1987.12  486.473
   371.8045  1257.2  1216.32  114.135  174.018  174.957  1003.36  1017.93  2072.43  2073.4  505.833
   372.0551  1307.93  1265.51  115.985  176.859  177.803  1047.96  1063.19  2164.47  2165.45  526.438
   372.3058  1362.01  1317.95  117.88  179.77  180.719  1095.59  1111.52  2262.79  2263.79  548.401
   372.5564  1419.75  1373.94  119.821  182.755  183.708  1146.53  1163.22  2367.98  2368.99  571.844
   372.8070  1481.48  1433.8  121.811  185.816  186.772  1201.1  1218.59  2480.68  2481.71  596.904
   373.0576  1547.59  1497.92  123.851  188.956  189.915  1259.65  1277.99  2601.61  2602.67  623.737
   373.3083  1618.52  1566.71  125.943  192.178  193.137  1322.55  1341.82  2731.61  2732.69  652.514
   373.5589  1694.74  1640.63  128.088  195.484  196.444  1390.27  1410.53  2871.57  2872.68  683.431
   373.8095  1776.79  1720.23  130.288  198.878  199.837  1463.29  1484.62  3022.54  3023.68  716.705
   374.0602  1865.31  1806.09  132.546  202.363  203.319  1542.17  1564.67  3185.69  3186.86  752.586
   374.3108  1960.98  1898.9  134.862  205.942  206.895  1627.55  1651.31  3362.35  3363.55  791.354
   374.5614  2064.61  1999.43  137.24  209.62  210.567  1720.16  1745.28  3554.03  3555.27  833.328
   374.8120  2177.12  2108.58  139.681  213.4  214.339  1820.83  1847.43  3762.46  3763.75  878.874
   375.0627  2299.54  2227.35  142.188  217.286  218.214  1930.51  1958.72  3989.63  3990.97  928.409
   375.3133  2433.07  2356.91  144.763  221.283  222.198  2050.28  2080.25  4237.81  4239.22  982.413
   375.5639  2579.12  2498.61  147.409  225.396  226.294  2181.4  2213.3  4509.64  4511.11  1041.44
   375.8145  2739.28  2654.02  150.128  229.629  230.507  2325.34  2359.36  4808.16  4809.7  1106.13
   376.0652  2915.43  2824.96  152.923  233.988  234.842  2483.78  2520.12  5136.91  5138.55  1177.23
   376.3158  3109.76  3013.54  155.796  238.479  239.303  2658.69  2697.61  5500.05  5501.78  1255.6
   376.5664  3324.84  3222.26  158.752  243.108  243.896  2852.41  2894.18  5902.41  5904.26  1342.27
   376.8170  3563.69  3454.06  161.792  247.881  248.628  3067.64  3112.58  6349.74  6351.72  1438.43
   377.0677  3829.91  3712.43  164.921  252.807  253.504  3307.63  3356.09  6848.8  6850.94  1545.5
   377.3183  4127.76  4001.5  168.141  257.893  258.531  3576.2  3628.61  7407.66  7409.99  1665.17
   377.5689  4462.35  4326.26  171.457  263.148  263.716  3877.93  3934.79  8035.97  8038.5  1799.45
   377.8195  4839.84  4692.65  174.872  268.582  269.068  4218.34  4280.21  8745.3  8748.08  1950.75
   378.0702  5267.65  5107.9  178.39  274.207  274.595  4604.07  4671.61  9549.68  9552.75  2122
   378.3208  5754.82  5580.79  182.016  280.034  280.307  5043.19  5117.18  10466.1  10469.5  2316.74
   378.5714  6312.42  6122.05  185.754  286.077  286.214  5545.53  5626.92  11515.4  11519.2  2539.29
   378.8221  6954.01  6744.86  189.609  292.354  292.328  6123.19  6213.08  12723.1  12727.4  2794.97
   379.0727  7696.37  7465.51  193.586  298.881  298.663  6791.07  6890.78  14120.6  14125.6  3090.3
   379.3233  8560.31  8304.2  197.69  305.682  305.234  7567.62  7678.75  15747.1  15752.8  3433.39
   379.5739  9571.71  9286.06  201.926  312.782  312.058  8475.78  8600.28  17651.2  17657.8  3834.32
   379.8246  10762.8  10442.4  206.302  320.211  319.156  9544.15  9684.36  19893.3  19901  4305.63
   380.0752  12173.7  11812.1  210.823  328.005  326.55  10808.3  10967.1  22548.8  22557.9  4862.95
   380.3258  13854  13443.5  215.497  336.206  334.269  12312.4  12493.3  25711  25721.7  5525.63
   380.5764  15864.2  15395  220.33  344.868  342.343  14110.4  14317.8  29493.7  29506.5  6317.43
   380.8271  18275.8  17736.4  225.331  354.047  350.81  16267.3  16506.4  34032.8  34048.1  7266.77
   381.0777  21169.2  20545.6  230.508  363.813  359.711  18857.2  19134.5  39482.3  39500.6  8406.29
   381.3283  24625.2  23901  235.87  374.235  369.087  21958.5  22281.3  46000.5  46022.2  9770.29
   381.5789  28704.3  27861.4  241.427  385.373  378.978  25637.9  26014.9  53714.4  53739.8  11388.1
   381.8296  33406.1  32426.3  247.186  397.256  389.402  29919.7  30359.6  62648.1  62676.9  13270.4
   382.0802  38599.9  37469.1  253.158  409.832  400.338  34728.2  35238.9  72597.6  72628.4  15384
   382.3308  43935  42649  259.346  422.911  411.691  39806.6  40392.1  82959  82989.1  17616.1
   382.5815  48775  47348.1  265.756  436.108  423.264  44638.6  45295.2  92586.4  92611.1  19740.2
   382.8321  52260.8  50732.4  272.386  448.858  434.763  48456.2  49169  99860.6  99874.2  21419.2
   383.0827  53589.3  52022.2  279.237  460.575  445.892  50437.1  51179.1  103161  103160  22292.3
   383.3333  52413.1  50880  286.315  470.928  456.492  50073.6  50810.3  101634  101616  22136.8
   383.5840  49046.4  47610.9  293.635  480.044  466.644  47463.3  48161.6  95682.7  95652.8  20995.3
   383.8346  44277.8  42980.5  301.219  488.445  476.638  43249.5  43885.8  86732.5  86696  19150.3
   384.0852  38972.5  37829  309.095  496.777  486.824  38272  38835.1  76481.3  76443.6  16970.4
   384.3358  33782  32789  317.288  505.576  497.494  33233.5  33722.4  66279.6  66244.3  14763.9
   384.5865  29071.5  28215  325.823  515.177  508.835  28566.8  28987.1  56923.9  56892.6  12720.7
   384.8371  24980.9  24242.9  334.72  525.741  520.942  24464.7  24824.6  48746.6  48719.9  10925.5
   385.0877  21515.8  20878.1  343.999  537.322  533.857  20965  21273.3  41791.7  41769.2  9394.91
   385.3383  18617.5  18063.6  353.681  549.917  547.593  18025.9  18291  35959.6  35940.9  8110.57
   385.5890  16205.9  15721.7  363.787  563.506  562.157  15574.8  15803.8  31098  31082.5  7040.6
   385.8396  14200.3  13773.9  374.34  578.068  577.555  13533.6  13732.6  27048.8  27036  6150.78
   386.0902  12528.5  12150.3  385.366  593.588  593.798  11830.6  12004.4  23668.6  23657.9  5409.6
   386.3409  11129.7  10791.7  396.891  610.063  610.905  10404.1  10556.9  20835.2  20826.2  4790.08
   386.5915  9953.64  9649.33  408.944  627.502  628.902  9203.22  9338.39  18447.8  18440.3  4269.86
   386.8421  8959.88  8683.97  421.557  645.923  647.823  8186.58  8306.77  16424.9  16418.6  3830.8
   387.0927  8115.84  7863.96  434.764  665.355  667.709  7320.84  7428.28  14700.6  14695.3  3458.31
   387.3434  7395.41  7163.95  448.602  685.833  688.605  6579.26  6675.79  13222.2  13217.7  3140.66
   387.5940  6777.62  6563.56  463.113  707.405  710.566  5940.37  6027.49  11947.4  11943.6  2868.44
   387.8446  6245.57  6046.4  478.338  730.123  733.651  5386.86  5465.82  10842.1  10838.8  2634.1
   388.0952  5785.61  5599.21  494.325  754.05  757.929  4904.76  4976.62  9878.5  9875.71  2431.53
   388.3459  5386.65  5211.23  511.126  779.255  783.473  4482.7  4548.35  9034.29  9031.91  2255.76
   388.5965  5039.66  4873.66  528.797  805.816  810.365  4111.43  4171.6  8291.11  8289.07  2102.77
   388.8471  4737.22  4579.32  547.396  833.82  838.695  3783.35  3838.68  7633.89  7632.15  1969.26
   389.0977  4473.23  4322.28  566.991  863.361  868.561  3492.16  3543.2  7050.22  7048.73  1852.49
   389.3484  4242.65  4097.64  587.654  894.545  900.071  3232.67  3279.89  6529.75  6528.48  1750.24
   389.5990  4041.3  3901.34  609.462  927.489  933.344  3000.55  3044.33  6063.88  6062.8  1660.64
   389.8496  3865.7  3729.99  632.502  962.319  968.509  2792.14  2832.85  5645.38  5644.47  1582.15
   390.1003  3712.94  3580.77  656.867  999.176  1005.71  2604.38  2642.32  5268.14  5267.38  1513.46
   390.3509  3580.6  3451.32  682.66  1038.21  1045.1  2434.68  2470.11  4927.02  4926.38  1453.5
   390.6015  3466.65  3339.67  709.994  1079.6  1086.85  2280.84  2313.99  4617.61  4617.08  1401.36
   390.8521  3369.4  3244.18  738.994  1123.53  1131.16  2140.96  2172.04  4336.16  4335.73  1356.29
   391.1028  3287.45  3163.48  769.798  1170.21  1178.23  2013.43  2042.63  4079.44  4079.1  1317.66
   391.3534  3219.64  3096.43  802.556  1219.86  1228.29  1896.86  1924.33  3844.69  3844.43  1284.94
   391.6040  3165.03  3042.12  837.436  1272.74  1281.61  1790.05  1815.93  3629.48  3629.29  1257.69
   391.8546  3122.85  2999.8  874.624  1329.13  1338.46  1691.94  1716.36  3431.75  3431.62  1235.56
   392.1053  3092.52  2968.89  914.328  1389.35  1399.15  1601.63  1624.71  3249.66  3249.59  1218.26
   392.3559  3073.59  2948.95  956.776  1453.73  1464.05  1518.32  1540.16  3081.63  3081.61  1205.59
   392.6065  3065.77  2939.67  1002.23  1522.68  1533.54  1441.32  1462  2926.26  2926.28  1197.37
   392.8571  3068.87  2940.9  1050.97  1596.63  1608.07  1370.01  1389.62  2782.32  2782.38  1193.5
   393.1078  3082.87  2952.56  1103.32  1676.07  1688.12  1303.85  1322.47  2648.73  2648.83  1193.93
   393.3584  3107.84  2974.73  1159.64  1761.54  1774.25  1242.36  1260.05  2524.54  2524.67  1198.64
   393.6090  3144  3007.6  1220.35  1853.66  1867.09  1185.12  1201.95  2408.88  2409.04  1207.68
   393.8596  3191.67  3051.48  1285.9  1953.15  1967.33  1131.75  1147.77  2301  2301.19  1221.14
   394.1103  3251.35  3106.81  1356.81  2060.78  2075.79  1081.92  1097.17  2200.23  2200.45  1239.18
   394.3609  3323.65  3174.18  1433.69  2177.46  2193.36  1035.31  1049.85  2105.97  2106.2  1261.98
   394.6115  3409.37  3254.33  1517.21  2304.23  2321.09  991.672  1005.53  2017.66  2017.92  1289.83
   394.8622  3509.46  3348.18  1608.14  2442.26  2460.17  950.753  963.975  1934.83  1935.1  1323.04
   395.1128  3625.12  3456.82  1707.38  2592.91  2611.96  912.338  924.955  1857.03  1857.33  1362.03
   395.3634  3757.73  3581.58  1815.96  2757.73  2778.02  876.232  888.274  1783.88  1784.19  1407.28
   395.6140  3908.99  3724.06  1935.06  2938.53  2960.18  842.258  853.752  1715.02  1715.34  1459.4
   395.8647  4080.89  3886.15  2066.06  3137.4  3160.55  810.256  821.227  1650.12  1650.45  1519.07
   396.1153  4275.8  4070.07  2210.57  3356.79  3381.59  780.083  790.552  1588.89  1589.23  1587.16
   396.3659  4496.52  4278.5  2370.48  3599.55  3626.18  751.607  761.594  1531.08  1531.42  1664.65
   396.6165  4746.42  4514.6  2548  3869.06  3897.7  724.711  734.231  1476.43  1476.77  1752.74
   396.8672  5029.46  4782.14  2745.75  4169.27  4200.17  699.288  708.354  1424.72  1425.07  1852.87
   397.1178  5350.41  5085.63  2966.83  4504.91  4538.33  675.239  683.863  1375.77  1376.13  1966.73
   397.3684  5714.99  5430.48  3214.96  4881.62  4917.86  652.479  660.669  1329.39  1329.75  2096.38
   397.6190  6130.06  5823.2  3494.58  5306.14  5345.55  630.928  638.688  1285.42  1285.77  2244.28
   397.8697  6603.95  6271.67  3811.05  5786.61  5829.62  610.514  617.847  1243.7  1244.05  2413.41
   398.1203  7146.76  6785.46  4170.87  6332.9  6380.01  591.175  598.08  1204.11  1204.45  2607.42
   398.3709  7770.81  7376.26  4581.98  6957.05  7008.82  572.856  579.326  1166.52  1166.85  2830.73
   398.6216  8491.26  8058.39  5054.06  7673.79  7730.93  555.507  561.533  1130.82  1131.14  3088.79
   398.8722  9326.75  8849.55  5599.09  8501.28  8564.6  539.088  544.654  1096.92  1097.23  3388.31
   399.1228  10300.4  9771.61  6231.86  9461.98  9532.48  523.565  528.649  1064.74  1065.03  3737.6
   399.3734  11440.9  10851.8  6970.74  10583.8  10662.7  508.914  513.487  1034.19  1034.46  4146.98
   399.6241  12784.1  12124  7838.63  11901.4  11990.2  495.119  499.141  1005.24  1005.48  4629.34
   399.8747  14374.5  13630.5  8864.02  13458.3  13558.6  482.175  485.595  977.823  978.032  5200.72
   400.1253  16267.5  15423.7  10082.3  15307.9  15422.1  470.086  472.841  951.925  952.093  5881.03
   400.3759  18531.3  17568.1  11537.1  17516.6  17647.4  458.873  460.88  927.532  927.649  6694.8
   400.6266  21248.1  20141.8  13280.9  20164.2  20314.7  448.566  449.723  904.648  904.704  7671.63
   400.8772  24513.7  23235.5  15374.9  23343.5  23517.7  439.212  439.392  883.298  883.28  8845.99
   401.1278  28431.8  26947.3  17885.5  27155.1  27357.8  430.864  429.914  863.515  863.406  10255.2
   401.3784  33098  31368  20873.6  31691.9  31928.5  423.57  421.316  845.33  845.112  11933.6
   401.6291  38564.9  36547.2  24373  37004.8  37281.2  417.347  413.599  828.738  828.392  13900.2
   401.8797  44776.3  42431.8  28347.6  43039.3  43360.7  412.129  406.711  813.644  813.152  16134.7
   402.1303  51465.3  48769  32627.1  49536.8  49906.8  407.682  400.484  799.77  799.121  18541.1
   402.3810  58042.9  55000.6  36835.2  55925.8  56343.5  403.522  394.577  786.556  785.752  20907.5
   402.6316  63563.6  60230.9  40367.9  61289.4  61747.1  398.883  388.454  773.134  772.2  22893.5
   402.8822  66913.1  63404.1  42513.4  64546.8  65028.8  392.868  381.49  758.487  757.474  24098.3
   403.1328  67258.6  63731.2  42739.6  64890.2  65374.9  384.803  373.216  741.849  740.83  24222.1
   403.3835  64505  61122.2  40985.9  62227.6  62692.4  374.596  363.562  723.105  722.154  23230.6
   403.6341  59352.8  56240.6  37699.7  57238.3  57665.8  362.787  352.896  702.841  702.015  21376.1
   403.8847  52899.3  50126.1  33582.1  50986.7  51367.5  350.227  341.801  681.995  681.325  19053.3
   404.1353  46153.6  43734.8  29277.6  44451.3  44783.3  337.7  330.816  661.426  660.919  16625.4
   404.3860  39786.2  37702.1  25214.7  38282.7  38568.6  325.724  320.291  641.701  641.348  14333.6
   404.6366  34126.4  32339.6  21603.5  32800  33044.9  314.546  310.397  623.084  622.867  12296.5
   404.8872  29267  27735.4  18503.5  28093.4  28303.2  304.229  301.17  605.635  605.536  10547.4
   405.1378  25172.5  23856.1  15892.1  24128.6  24308.8  294.735  292.583  589.303  589.303  9073.58
   405.3885  21753  20616.2  13711.7  20818.1  20973.6  285.982  284.576  573.988  574.072  7842.66
   405.6391  18904.6  17917.3  11895.9  18061.3  18196.2  277.881  277.083  559.581  559.734  6817.26
   405.8897  16528.9  15666.4  10382.1  15762.9  15880.6  270.344  270.042  545.977  546.188  5962
   406.1404  14540.5  13782.4  9115.53  13839.9  13943.2  263.295  263.398  533.086  533.344  5246.13
   406.3910  12868.2  12197.9  8050.77  12223.4  12314.6  256.671  257.103  520.827  521.127  4644.01
   406.6416  11453.9  10857.8  7150.72  10856.8  10937.9  250.419  251.12  509.136  509.47  4134.74
   406.8922  10250.8  9717.82  6385.45  9694.96  9767.3  244.494  245.414  497.956  498.32  3701.47
   407.1429  9221.2  8742.22  5730.93  8701.23  8766.15  238.86  239.96  487.242  487.631  3330.65
   407.3935  8334.93  7902.42  5167.88  7846.36  7904.9  233.488  234.734  476.954  477.365  3011.42
   407.6441  7567.69  7175.41  4680.77  7106.8  7159.82  228.351  229.717  467.059  467.488  2735.04
   407.8947  6899.87  6542.58  4257.09  6463.53  6511.74  223.429  224.893  457.528  457.973  2494.44
   408.1454  6315.55  5988.87  3886.66  5901.12  5945.13  218.703  220.246  448.335  448.795  2283.9
   408.3960  5801.76  5501.99  3561.2  5406.98  5447.3  214.159  215.766  439.459  439.932  2098.74
   408.6466  5347.87  5071.86  3273.92  4970.83  5007.89  209.783  211.44  430.882  431.366  1935.15
   408.8972  4945.12  4690.19  3019.24  4584.15  4618.32  205.563  207.261  422.585  423.079  1789.97
   409.1479  4586.25  4350.09  2792.52  4239.92  4271.53  201.49  203.219  414.553  415.056  1660.59
   409.3985  4265.22  4045.85  2589.9  3932.28  3961.59  197.554  199.306  406.773  407.284  1544.83
   409.6491  3976.97  3772.66  2408.14  3656.33  3683.58  193.747  195.516  399.232  399.749  1440.87
   409.8997  3717.23  3526.49  2244.54  3407.94  3433.33  190.063  191.843  391.918  392.442  1347.18
   410.1504  3482.41  3303.93  2096.79  3183.62  3207.33  186.494  188.281  384.82  385.35  1262.46
   410.4010  3269.46  3102.09  1962.95  2980.4  3002.6  183.034  184.825  377.93  378.465  1185.62
   410.6516  3075.75  2918.48  1841.34  2795.77  2816.59  179.679  181.469  371.238  371.777  1115.71
   410.9023  2899.05  2751  1730.55  2627.55  2647.12  176.424  178.21  364.735  365.279  1051.93
   411.1529  2737.44  2597.81  1629.33  2473.88  2492.3  173.263  175.043  358.413  358.961  993.577
   411.4035  2589.26  2457.34  1536.64  2333.15  2350.52  170.192  171.965  352.266  352.818  940.064
   411.6541  2453.05  2328.23  1451.56  2203.96  2220.37  167.209  168.972  346.287  346.841  890.868
   411.9048  2327.57  2209.28  1373.27  2085.1  2100.62  164.308  166.06  340.468  341.025  845.536
   412.1554  2211.73  2099.45  1301.09  1975.51  1990.21  161.487  163.226  334.803  335.364  803.674
   412.4060  2104.55  1997.84  1234.4  1874.26  1888.2  158.742  160.468  329.288  329.851  764.936
   412.6566  2005.19  1903.64  1172.66  1780.52  1793.77  156.071  157.782  323.916  324.481  729.018
   412.9073  1912.91  1816.15  1115.4  1693.59  1706.19  153.47  155.166  318.682  319.249  695.652
   413.1579  1827.06  1734.75  1062.21  1612.82  1624.81  150.937  152.617  313.581  314.15  664.6
   413.4085  1747.04  1658.88  1012.7  1537.65  1549.08  148.469  150.133  308.609  309.18  635.651
   413.6591  1672.33  1588.04  966.543  1467.57  1478.48  146.064  147.711  303.761  304.333  608.62
   413.9098  1602.48  1521.81  923.453  1402.15  1412.57  143.72  145.35  299.032  299.606  583.339
   414.1604  1537.07  1459.78  883.162  1340.97  1350.94  141.434  143.047  294.42  294.995  559.659
   414.4110  1475.73  1401.61  845.434  1283.69  1293.23  139.205  140.8  289.919  290.495  537.447
   414.6617  1418.12  1346.97  810.058  1229.98  1239.12  137.03  138.608  285.526  286.104  516.582
   414.9123  1363.95  1295.6  776.844  1179.55  1188.32  134.908  136.468  281.238  281.816  496.957
   415.1629  1312.94  1247.22  745.62  1132.14  1140.55  132.837  134.379  277.051  277.63  478.474
   415.4135  1264.85  1201.62  716.232  1087.52  1095.6  130.815  132.34  272.962  273.542  461.045
   415.6642  1219.47  1158.57  688.538  1045.47  1053.24  128.841  130.348  268.968  269.549  444.591
   415.9148  1176.59  1117.89  662.411  1005.81  1013.27  126.913  128.402  265.066  265.647  429.04
   416.1654  1136.02  1079.41  637.737  968.343  975.532  125.029  126.5  261.253  261.835  414.325
   416.4160  1097.6  1042.97  614.41  932.924  939.85  123.189  124.642  257.526  258.109  400.388
   416.6667  1061.19  1008.43  592.334  899.406  906.082  121.39  122.826  253.882  254.466  387.173
   416.9173  1026.64  975.651  571.421  867.654  874.093  119.632  121.051  250.32  250.904  374.63
   417.1679  993.819  944.518  551.592  837.547  843.762  117.914  119.315  246.836  247.421  362.715
   417.4185  962.622  914.921  532.774  808.974  814.976  116.233  117.618  243.429  244.014  351.385
   417.6692  932.939  886.758  514.898  781.833  787.633  114.589  115.957  240.096  240.681  340.601
   417.9198  904.672  859.938  497.904  756.031  761.638  112.982  114.333  236.835  237.42  330.33
   418.1704  877.731  834.374  481.734  731.48  736.905  111.409  112.743  233.643  234.229  320.538
   418.4211  852.032  809.99  466.337  708.102  713.352  109.87  111.187  230.52  231.105  311.195
   418.6717  827.501  786.711  451.664  685.823  690.908  108.363  109.665  227.462  228.048  302.274
   418.9223  804.065  764.471  437.67  664.575  669.502  106.889  108.174  224.468  225.054  293.75
   419.1729  781.66  743.209  424.315  644.297  649.073  105.445  106.715  221.537  222.123  285.599
   419.4236  760.225  722.867  411.559  624.93  629.562  104.032  105.286  218.665  219.252  277.798
   419.6742  739.704  703.391  399.369  606.421  610.915  102.647  103.886  215.853  216.44  270.328
   419.9248  720.045  684.732  387.711  588.72  593.082  101.292  102.516  213.098  213.684  263.17
   420.1754  701.2  666.845  376.554  571.78  576.016  99.9633  101.172  210.399  210.985  256.307
   420.4261  683.123  649.686  365.871  555.559  559.675  98.662  99.8563  207.753  208.34  249.722
   420.6767  665.772  633.217  355.635  540.017  544.017  97.3868  98.5666  205.161  205.747  243.399
   420.9273  649.109  617.399  345.821  525.117  529.005  96.137  97.3025  202.619  203.206  237.326
   421.1779  633.096  602.198  336.407  510.823  514.605  94.9121  96.0634  200.128  200.714  231.489
   421.4286  617.701  587.583  327.371  497.103  500.784  93.7112  94.8486  197.685  198.271  225.875
   421.6792  602.89  573.522  318.694  483.928  487.51  92.5338  93.6575  195.29  195.875  220.473
   421.9298  588.634  559.987  310.356  471.268  474.756  91.3792  92.4894  192.94  193.526  215.272
   422.1805  574.906  546.953  302.34  459.098  462.495  90.2469  91.3438  190.636  191.221  210.262
   422.4311  561.678  534.394  294.631  447.392  450.702  89.1363  90.22  188.375  188.96  205.434
   422.6817  548.928  522.287  287.212  436.127  439.353  88.0468  89.1176  186.157  186.742  200.779
   422.9323  536.63  510.609  280.069  425.281  428.427  86.9779  88.036  183.98  184.565  196.288
   423.1830  524.764  499.342  273.188  414.834  417.902  85.929  86.9746  181.844  182.429  191.954
   423.4336  513.31  488.464  266.558  404.766  407.76  84.8997  85.9329  179.748  180.332  187.769
   423.6842  502.247  477.959  260.166  395.06  397.982  83.8895  84.9105  177.69  178.274  183.727
   423.9348  491.559  467.808  254  385.699  388.551  82.8979  83.9069  175.67  176.253  179.82
   424.1855  481.228  457.996  248.05  376.665  379.45  81.9245  82.9217  173.686  174.27  176.043
   424.4361  471.238  448.508  242.307  367.945  370.665  80.9687  81.9543  171.738  172.321  172.389
   424.6867  461.574  439.329  236.761  359.523  362.181  80.0302  81.0043  169.825  170.408  168.854
   424.9373  452.221  430.445  231.402  351.387  353.984  79.1086  80.0714  167.946  168.529  165.432
   425.1880  443.166  421.844  226.224  343.524  346.062  78.2034  79.1551  166.101  166.683  162.119
   425.4386  434.397  413.514  221.216  335.921  338.403  77.3142  78.255  164.287  164.87  158.909
   425.6892  425.9  405.443  216.373  328.567  330.994  76.4408  77.3708  162.506  163.088  155.798
   425.9398  417.666  397.62  211.687  321.452  323.826  75.5826  76.502  160.756  161.337  152.783
   426.1905  409.682  390.035  207.151  314.565  316.888  74.7394  75.6483  159.035  159.616  149.859
   426.4411  401.938  382.678  202.76  307.896  310.17  73.9108  74.8094  157.345  157.925  147.022
   426.6917  394.425  375.541  198.506  301.438  303.663  73.0964  73.9849  155.683  156.263  144.269
   426.9424  387.134  368.613  194.385  295.18  297.359  72.296  73.1744  154.049  154.629  141.596
   427.1930  380.055  361.887  190.39  289.114  291.248  71.5092  72.3778  152.444  153.023  139.001
   427.4436  373.181  355.355  186.517  283.234  285.324  70.7357  71.5946  150.864  151.444  136.481
   427.6942  366.503  349.009  182.761  277.53  279.579  69.9752  70.8245  149.312  149.891  134.032
   427.9449  360.013  342.842  179.117  271.997  274.005  69.2274  70.0673  147.785  148.363  131.651
   428.1955  353.705  336.848  175.581  266.628  268.596  68.492  69.3227  146.283  146.861  129.337
   428.4461  347.572  331.019  172.149  261.416  263.345  67.7688  68.5904  144.806  145.384  127.086
   428.6967  341.607  325.35  168.816  256.355  258.246  67.0575  67.87  143.353  143.93  124.896
   428.9474  335.803  319.835  165.578  251.44  253.294  66.3578  67.1615  141.923  142.5  122.766
   429.1980  330.156  314.468  162.433  246.664  248.483  65.6695  66.4644  140.517  141.093  120.692
   429.4486  324.659  309.243  159.377  242.023  243.808  64.9923  65.7786  139.133  139.709  118.673
   429.6992  319.307  304.156  156.405  237.511  239.263  64.326  65.1038  137.771  138.347  116.707
   429.9499  314.094  299.201  153.517  233.125  234.844  63.6703  64.4397  136.431  137.006  114.792
   430.2005  309.017  294.375  150.707  228.858  230.546  63.025  63.7862  135.112  135.686  112.926
   430.4511  304.069  289.671  147.973  224.708  226.364  62.39  63.143  133.814  134.388  111.107
   430.7018  299.247  285.088  145.314  220.669  222.296  61.7649  62.51  132.535  133.109  109.335
   430.9524  294.546  280.619  142.725  216.739  218.336  61.1496  61.8868  131.277  131.85  107.606
   431.2030  289.963  276.261  140.205  212.912  214.481  60.5439  61.2733  130.038  130.611  105.921
   431.4536  285.492  272.011  137.751  209.185  210.727  59.9476  60.6693  128.818  129.39  104.276
   431.7043  281.131  267.865  135.36  205.556  207.07  59.3604  60.0745  127.617  128.189  102.672
   431.9549  276.876  263.819  133.031  202.02  203.508  58.7822  59.4889  126.434  127.005  101.106
   432.2055  272.723  259.871  130.762  198.574  200.037  58.2128  58.9122  125.269  125.84  99.5775
   432.4561  268.669  256.016  128.551  195.216  196.653  57.6521  58.3442  124.121  124.691  98.0852
   432.7068  264.711  252.252  126.394  191.942  193.355  57.0998  57.7848  122.991  123.56  96.628
   432.9574  260.845  248.577  124.292  188.749  190.139  56.5558  57.2337  121.877  122.446  95.2046
   433.2080  257.07  244.986  122.242  185.636  187.003  56.0199  56.6909  120.78  121.348  93.814
   433.4586  253.381  241.478  120.242  182.599  183.943  55.4919  56.1561  119.699  120.267  92.4552
   433.7093  249.776  238.051  118.29  179.636  180.958  54.9718  55.6292  118.633  119.201  91.1272
   433.9599  246.254  234.7  116.386  176.744  178.045  54.4593  55.11  117.584  118.151  89.8291
   434.2105  242.81  231.425  114.527  173.921  175.201  53.9543  54.5984  116.549  117.116  88.56
   434.4612  239.443  228.223  112.712  171.166  172.425  53.4566  54.0943  115.529  116.096  87.3189
   434.7118  236.15  225.091  110.94  168.475  169.715  52.9661  53.5974  114.525  115.09  86.105
   434.9624  232.93  222.028  109.21  165.848  167.068  52.4827  53.1077  113.534  114.099  84.9175
   435.2130  229.779  219.032  107.52  163.281  164.482  52.0063  52.625  112.557  113.122  83.7557
   435.4637  226.697  216.1  105.868  160.773  161.956  51.5366  52.1492  111.595  112.159  82.6188
   435.7143  223.68  213.23  104.254  158.323  159.487  51.0736  51.6802  110.645  111.209  81.506
   435.9649  220.728  210.422  102.677  155.928  157.075  50.6171  51.2177  109.709  110.273  80.4167
   436.2155  217.838  207.673  101.136  153.587  154.716  50.167  50.7618  108.787  109.349  79.3502
   436.4662  215.008  204.981  99.6284  151.298  152.411  49.7232  50.3122  107.876  108.439  78.3059
   436.7168  212.237  202.345  98.1546  149.06  150.156  49.2857  49.8689  106.979  107.541  77.2831
   436.9674  209.523  199.763  96.7133  146.872  147.952  48.8541  49.4317  106.094  106.655  76.2812
   437.2180  206.865  197.234  95.3034  144.731  145.795  48.4286  49.0005  105.22  105.781  75.2996
   437.4687  204.26  194.756  93.9242  142.637  143.685  48.0088  48.5753  104.359  104.919  74.3378
   437.7193  201.708  192.328  92.5746  140.587  141.621  47.5948  48.1559  103.51  104.069  73.3953
   437.9699  199.207  189.948  91.2539  138.582  139.6  47.1864  47.7421  102.671  103.23  72.4715
   438.2206  196.756  187.616  89.9612  136.619  137.623  46.7836  47.334  101.844  102.403  71.5659
   438.4712  194.353  185.329  88.6958  134.697  135.687  46.3861  46.9313  101.029  101.587  70.678
   438.7218  191.997  183.087  87.4569  132.816  133.792  45.994  46.5341  100.223  100.781  69.8073
   438.9724  189.687  180.889  86.2438  130.974  131.936  45.6072  46.1421  99.429  99.9859  68.9535
   439.2231  187.421  178.733  85.0557  129.17  130.119  45.2254  45.7554  98.645  99.2014  68.1161
   439.4737  185.199  176.618  83.8919  127.403  128.339  44.8488  45.3737  97.8712  98.4271  67.2945
   439.7243  183.019  174.544  82.7519  125.672  126.595  44.477  44.9971  97.1075  97.6629  66.4885
   439.9749  180.88  172.508  81.635  123.976  124.886  44.1102  44.6254  96.3538  96.9086  65.6976
   440.2256  178.781  170.511  80.5405  122.314  123.212  43.7481  44.2586  95.6098  96.164  64.9215
   440.4762  176.722  168.551  79.4678  120.685  121.571  43.3908  43.8965  94.8753  95.429  64.1597
   440.7268  174.7  166.627  78.4164  119.088  119.962  43.038  43.5391  94.1502  94.7034  63.412
   440.9774  172.716  164.738  77.3857  117.523  118.386  42.6898  43.1863  93.4344  93.987  62.6778
   441.2281  170.768  162.884  76.3752  115.989  116.84  42.3461  42.838  92.7276  93.2797  61.9571
   441.4787  168.855  161.064  75.3844  114.484  115.324  42.0067  42.4942  92.0298  92.5814  61.2493
   441.7293  166.977  159.276  74.4127  113.009  113.838  41.6716  42.1547  91.3407  91.8918  60.5541
   441.9799  165.132  157.52  73.4597  111.561  112.38  41.3408  41.8195  90.6603  91.2108  59.8714
   442.2306  163.32  155.795  72.5248  110.142  110.95  41.0142  41.4885  89.9883  90.5383  59.2007
   442.4812  161.54  154.101  71.6077  108.749  109.547  40.6916  41.1617  89.3246  89.8741  58.5418
   442.7318  159.792  152.436  70.7078  107.383  108.17  40.3731  40.839  88.6692  89.2181  57.8943
   442.9825  158.074  150.801  69.8248  106.042  106.82  40.0585  40.5203  88.0218  88.5701  57.2582
   443.2331  156.385  149.193  68.9583  104.726  105.494  39.7479  40.2055  87.3823  87.9301  56.6329
   443.4837  154.726  147.614  68.1077  103.434  104.193  39.441  39.8946  86.7506  87.2979  56.0184
   443.7343  153.095  146.061  67.2728  102.166  102.916  39.1379  39.5875  86.1266  86.6733  55.4143
   443.9850  151.492  144.535  66.4531  100.922  101.662  38.8385  39.2841  85.5101  86.0563  54.8205
   444.2356  149.916  143.035  65.6483  99.6996  100.431  38.5428  38.9845  84.9011  85.4467  54.2366
   444.4862  148.367  141.559  64.8581  98.4995  99.2217  38.2506  38.6884  84.2993  84.8444  53.6625
   444.7368  146.843  140.108  64.082  97.321  98.0345  37.962  38.396  83.7047  84.2492  53.0979
   444.9875  145.345  138.682  63.3197  96.1635  96.8685  37.6769  38.1071  83.1171  83.6611  52.5426
   445.2381  143.871  137.279  62.571  95.0266  95.7231  37.3951  37.8216  82.5365  83.08  51.9965
   445.4887  142.421  135.898  61.8355  93.9096  94.5979  37.1167  37.5395  81.9628  82.5057  51.4592
   445.7393  140.995  134.541  61.1128  92.8123  93.4924  36.8416  37.2608  81.3957  81.9381  50.9307
   445.9900  139.593  133.205  60.4027  91.734  92.4062  36.5698  36.9853  80.8353  81.3771  50.4106
   446.2406  138.212  131.891  59.705  90.6744  91.3388  36.3011  36.7131  80.2814  80.8227  49.8989
   446.4912  136.854  130.597  59.0192  89.6331  90.2898  36.0356  36.4441  79.7339  80.2747  49.3954
   446.7419  135.518  129.325  58.3452  88.6096  89.2587  35.7733  36.1782  79.1928  79.7329  48.8998
   446.9925  134.203  128.072  57.6827  87.6035  88.2452  35.5139  35.9154  78.6578  79.1974  48.4121
   447.2431  132.908  126.839  57.0314  86.6144  87.2489  35.2576  35.6557  78.1289  78.668  47.9319
   447.4937  131.634  125.625  56.391  85.642  86.2693  35.0042  35.399  77.6061  78.1447  47.4593
   447.7444  130.379  124.431  55.7614  84.6859  85.3061  34.7537  35.1452  77.0892  77.6272  46.994
   447.9950  129.144  123.254  55.1423  83.7457  84.359  34.5061  34.8943  76.5782  77.1156  46.5358
   448.2456  127.928  122.096  54.5334  82.8211  83.4275  34.2613  34.6462  76.0729  76.6098  46.0846
   448.4962  126.73  120.955  53.9345  81.9116  82.5114  34.0193  34.401  75.5732  76.1096  45.6404
   448.7469  125.551  119.832  53.3454  81.0171  81.6103  33.7801  34.1586  75.0791  75.6149  45.2028
   448.9975  124.389  118.726  52.766  80.1372  80.7238  33.5435  33.9189  74.5905  75.1258  44.7719
   449.2481  123.245  117.636  52.1959  79.2715  79.8517  33.3096  33.6818  74.1074  74.6421  44.3474
   449.4987  122.118  116.563  51.635  78.4197  78.9937  33.0782  33.4475  73.6295  74.1637  43.9292
   449.7494  121.008  115.505  51.0831  77.5816  78.1494  32.8495  33.2157  73.1569  73.6906  43.5172
   450.0000  119.914  114.463  50.54  76.7568  77.3186  32.6233  32.9865  72.6895  73.2226  43.1113