File: examples/mos2-example2/ref/raman_spectra2.dat
#Raman spectra
#Laser energy   2.33 eV
#Raman shift (cm-1), Raman Spectra (XX,YY,ZZ,s+s+,s-s-,XY,YX,s+s-,s-s+,nonpol)
   350.0000  127.395  125.321  45.0021  79.7954  80.2034  37.5212  38.0537  83.8903  84.4021  84.8074
   350.2506  128.687  126.597  45.4301  80.5543  80.9661  38.0338  38.5753  84.9308  85.4423  85.6215
   350.5013  130.003  127.896  45.8642  81.3242  81.7398  38.5583  39.1091  85.9958  86.5071  86.4501
   350.7519  131.343  129.219  46.3045  82.1052  82.5247  39.0951  39.6554  87.0861  87.5971  87.2934
   351.0025  132.708  130.567  46.7513  82.8974  83.3209  39.6446  40.2146  88.2025  88.7132  88.1518
   351.2531  134.098  131.939  47.2045  83.7012  84.1286  40.2072  40.7871  89.3457  89.8562  89.0257
   351.5038  135.514  133.338  47.6643  84.5167  84.9482  40.7833  41.3733  90.5167  91.027  89.9154
   351.7544  136.957  134.762  48.1309  85.3442  85.7798  41.3733  41.9737  91.7163  92.2263  90.8213
   352.0050  138.428  136.214  48.6044  86.1839  86.6237  41.9777  42.5887  92.9454  93.4552  91.7437
   352.2556  139.926  137.694  49.0849  87.0361  87.4801  42.5969  43.2189  94.205  94.7146  92.6832
   352.5063  141.454  139.202  49.5726  87.9009  88.3492  43.2314  43.8646  95.496  96.0055  93.64
   352.7569  143.011  140.74  50.0675  88.7787  89.2314  43.8818  44.5264  96.8196  97.329  94.6147
   353.0075  144.599  142.307  50.5699  89.6698  90.1268  44.5485  45.2048  98.1769  98.686  95.6076
   353.2581  146.218  143.906  51.0799  90.5743  91.0358  45.2321  45.9005  99.5688  100.078  96.6193
   353.5088  147.87  145.537  51.5977  91.4925  91.9586  45.9332  46.6139  100.997  101.506  97.6502
   353.7594  149.554  147.2  52.1233  92.4248  92.8955  46.6524  47.3457  102.462  102.97  98.7007
   354.0100  151.273  148.897  52.6571  93.3714  93.8468  47.3903  48.0965  103.965  104.474  99.7714
   354.2607  153.027  150.629  53.1991  94.3327  94.8128  48.1474  48.867  105.508  106.017  100.863
   354.5113  154.817  152.397  53.7494  95.3088  95.7937  48.9246  49.6578  107.092  107.601  101.976
   354.7619  156.644  154.201  54.3084  96.3002  96.79  49.7225  50.4697  108.719  109.228  103.11
   355.0125  158.509  156.043  54.8761  97.3071  97.8019  50.5419  51.3034  110.39  110.898  104.267
   355.2632  160.414  157.924  55.4528  98.3299  98.8297  51.3835  52.1598  112.106  112.615  105.447
   355.5138  162.359  159.845  56.0386  99.3689  99.8738  52.2481  53.0395  113.87  114.379  106.651
   355.7644  164.347  161.807  56.6337  100.424  100.935  53.1365  53.9435  115.683  116.192  107.879
   356.0150  166.377  163.812  57.2384  101.497  102.012  54.0497  54.8727  117.547  118.056  109.131
   356.2657  168.452  165.861  57.8528  102.587  103.107  54.9886  55.8281  119.463  119.972  110.41
   356.5163  170.572  167.955  58.4771  103.694  104.22  55.9541  56.8105  121.435  121.944  111.715
   356.7669  172.74  170.096  59.1116  104.819  105.351  56.9473  57.821  123.463  123.972  113.047
   357.0175  174.957  172.285  59.7565  105.963  106.5  57.9691  58.8607  125.55  126.059  114.407
   357.2682  177.224  174.524  60.412  107.126  107.669  59.0207  59.9307  127.698  128.207  115.796
   357.5188  179.543  176.815  61.0783  108.308  108.856  60.1033  61.0322  129.91  130.42  117.215
   357.7694  181.916  179.158  61.7557  109.509  110.064  61.2181  62.1665  132.188  132.698  118.664
   358.0201  184.345  181.556  62.4444  110.731  111.291  62.3664  63.3348  134.535  135.045  120.144
   358.2707  186.831  184.012  63.1447  111.973  112.54  63.5494  64.5386  136.953  137.464  121.657
   358.5213  189.376  186.525  63.8569  113.236  113.809  64.7687  65.7791  139.446  139.957  123.204
   358.7719  191.983  189.1  64.5812  114.521  115.1  66.0257  67.0581  142.017  142.528  124.784
   359.0226  194.653  191.737  65.3178  115.828  116.413  67.3219  68.3769  144.668  145.18  126.401
   359.2732  197.389  194.44  66.0671  117.157  117.748  68.6591  69.7374  147.404  147.916  128.054
   359.5238  200.193  197.209  66.8294  118.509  119.107  70.0389  71.1413  150.227  150.74  129.745
   359.7744  203.068  200.049  67.605  119.885  120.49  71.4631  72.5904  153.141  153.655  131.475
   360.0251  206.016  202.961  68.3941  121.285  121.896  72.9338  74.0867  156.151  156.665  133.246
   360.2757  209.04  205.948  69.1971  122.709  123.327  74.4528  75.6323  159.261  159.775  135.058
   360.5263  212.143  209.013  70.0144  124.159  124.784  76.0224  77.2292  162.475  162.99  136.914
   360.7769  215.327  212.159  70.8462  125.634  126.267  77.6448  78.8799  165.797  166.312  138.815
   361.0276  218.597  215.388  71.6929  127.137  127.776  79.3224  80.5867  169.233  169.749  140.761
   361.2782  221.954  218.705  72.5548  128.666  129.312  81.0576  82.3522  172.787  173.304  142.756
   361.5288  225.404  222.113  73.4324  130.223  130.877  82.8533  84.1791  176.466  176.984  144.801
   361.7794  228.948  225.615  74.326  131.808  132.47  84.7121  86.0703  180.274  180.793  146.897
   362.0301  232.592  229.214  75.236  133.422  134.092  86.637  88.0288  184.219  184.739  149.046
   362.2807  236.339  232.917  76.1628  135.067  135.744  88.6313  90.0579  188.307  188.828  151.251
   362.5313  240.194  236.725  77.1069  136.741  137.426  90.6983  92.1608  192.544  193.066  153.513
   362.7820  244.161  240.644  78.0686  138.448  139.141  92.8415  94.3414  196.938  197.462  155.835
   363.0326  248.245  244.679  79.0484  140.186  140.887  95.0648  96.6033  201.497  202.022  158.219
   363.2832  252.451  248.835  80.0467  141.957  142.667  97.372  98.9507  206.229  206.755  160.668
   363.5338  256.784  253.116  81.0641  143.762  144.48  99.7676  101.388  211.143  211.67  163.184
   363.7845  261.25  257.529  82.101  145.602  146.329  102.256  103.92  216.248  216.777  165.769
   364.0351  265.856  262.08  83.1579  147.477  148.213  104.842  106.551  221.554  222.084  168.428
   364.2857  270.607  266.775  84.2353  149.389  150.133  107.531  109.286  227.073  227.604  171.162
   364.5363  275.51  271.62  85.3338  151.338  152.091  110.328  112.132  232.814  233.347  173.975
   364.7870  280.573  276.623  86.4539  153.326  154.088  113.24  115.095  238.791  239.326  176.871
   365.0376  285.803  281.791  87.5962  155.353  156.124  116.272  118.179  245.015  245.552  179.853
   365.2882  291.208  287.133  88.7613  157.42  158.201  119.431  121.393  251.503  252.042  182.925
   365.5388  296.798  292.657  89.9497  159.529  160.32  122.724  124.744  258.267  258.808  186.091
   365.7895  302.58  298.373  91.1622  161.681  162.481  126.16  128.239  265.324  265.867  189.355
   366.0401  308.567  304.289  92.3994  163.876  164.687  129.746  131.888  272.69  273.236  192.723
   366.2907  314.767  310.418  93.6618  166.117  166.938  133.491  135.698  280.385  280.934  196.199
   366.5414  321.193  316.769  94.9504  168.404  169.235  137.405  139.68  288.428  288.979  199.788
   366.7920  327.856  323.355  96.2657  170.738  171.579  141.498  143.844  296.841  297.394  203.496
   367.0426  334.77  330.189  97.6085  173.121  173.973  145.78  148.201  305.645  306.201  207.329
   367.2932  341.949  337.286  98.9796  175.555  176.418  150.265  152.763  314.865  315.425  211.294
   367.5439  349.407  344.659  100.38  178.04  178.914  154.964  157.544  324.528  325.092  215.397
   367.7945  357.161  352.325  101.81  180.579  181.463  159.892  162.558  334.664  335.231  219.646
   368.0451  365.23  360.301  103.271  183.172  184.068  165.064  167.819  345.301  345.872  224.048
   368.2957  373.63  368.606  104.763  185.821  186.729  170.495  173.345  356.475  357.05  228.614
   368.5464  382.384  377.26  106.288  188.528  189.448  176.203  179.152  368.222  368.801  233.351
   368.7970  391.512  386.286  107.847  191.295  192.227  182.208  185.262  380.581  381.165  238.269
   369.0476  401.04  395.707  109.44  194.124  195.067  188.531  191.694  393.596  394.184  243.38
   369.2982  410.992  405.548  111.068  197.016  197.971  195.193  198.472  407.312  407.906  248.696
   369.5489  421.398  415.838  112.734  199.972  200.94  202.22  205.62  421.782  422.381  254.228
   369.7995  432.288  426.607  114.437  202.996  203.976  209.638  213.167  437.062  437.666  259.99
   370.0501  443.696  437.888  116.178  206.089  207.082  217.477  221.143  453.211  453.821  265.998
   370.3008  455.659  449.718  117.96  209.254  210.26  225.77  229.579  470.298  470.915  272.268
   370.5514  468.215  462.137  119.784  212.492  213.511  234.551  238.513  488.395  489.019  278.817
   370.8020  481.411  475.188  121.649  215.806  216.838  243.859  247.983  507.583  508.214  285.664
   371.0526  495.293  488.918  123.559  219.198  220.243  253.738  258.034  527.952  528.591  292.832
   371.3033  509.916  503.382  125.514  222.671  223.729  264.235  268.713  549.599  550.246  300.343
   371.5539  525.337  518.636  127.516  226.227  227.299  275.402  280.073  572.632  573.289  308.223
   371.8045  541.622  534.745  129.565  229.869  230.955  287.296  292.173  597.173  597.839  316.5
   372.0551  558.842  551.78  131.665  233.6  234.7  299.982  305.08  623.353  624.03  325.206
   372.3058  577.077  569.82  133.816  237.423  238.536  313.531  318.864  651.322  652.01  334.374
   372.5564  596.416  588.952  136.021  241.341  242.468  328.022  333.607  681.244  681.944  344.043
   372.8070  616.957  609.275  138.28  245.356  246.498  343.544  349.399  713.304  714.017  354.256
   373.0576  638.81  630.897  140.596  249.474  250.629  360.198  366.341  747.708  748.435  365.06
   373.3083  662.101  653.942  142.971  253.696  254.865  378.092  384.546  784.689  785.431  376.507
   373.5589  686.966  678.547  145.406  258.026  259.209  397.355  404.142  824.508  825.266  388.658
   373.8095  713.564  704.866  147.904  262.469  263.666  418.125  425.274  867.459  868.235  401.579
   374.0602  742.071  733.077  150.467  267.028  268.238  440.565  448.102  913.876  914.671  415.345
   374.3108  772.687  763.376  153.097  271.708  272.931  464.854  472.813  964.137  964.953  430.041
   374.5614  805.641  795.99  155.797  276.512  277.749  491.2  499.616  1018.67  1019.51  445.765
   374.8120  841.194  831.177  158.569  281.446  282.695  519.837  528.751  1077.98  1078.84  462.625
   375.0627  879.643  869.233  161.415  286.514  287.775  551.037  560.492  1142.61  1143.5  480.747
   375.3133  921.33  910.496  164.339  291.721  292.993  585.11  595.156  1213.23  1214.15  500.276
   375.5639  966.652  955.357  167.343  297.073  298.356  622.412  633.105  1290.57  1291.53  521.376
   375.8145  1016.06  1004.27  170.43  302.574  303.867  663.36  674.763  1375.51  1376.5  544.238
   376.0652  1070.1  1057.76  173.603  308.232  309.533  708.433  720.618  1469.06  1470.09  569.085
   376.3158  1129.38  1116.44  176.866  314.052  315.36  758.194  771.243  1572.39  1573.46  596.174
   376.5664  1194.63  1181.04  180.222  320.04  321.354  813.303  827.308  1686.88  1688.01  625.807
   376.8170  1266.7  1252.4  183.675  326.204  327.521  874.535  889.603  1814.17  1815.35  658.341
   377.0677  1346.62  1331.53  187.228  332.551  333.869  942.809  959.06  1956.18  1957.42  694.193
   377.3183  1435.6  1419.63  190.885  339.088  340.405  1019.21  1036.79  2115.21  2116.53  733.862
   377.5689  1535.07  1518.12  194.651  345.825  347.136  1105.06  1124.12  2294.01  2295.4  777.943
   377.8195  1646.77  1628.73  198.529  352.77  354.072  1201.9  1222.65  2495.86  2497.34  827.147
   378.0702  1772.8  1753.53  202.525  359.932  361.22  1311.64  1334.29  2724.76  2726.35  882.333
   378.3208  1915.72  1895.06  206.644  367.323  368.59  1436.56  1461.38  2985.55  2987.26  944.545
   378.5714  2078.65  2056.4  210.89  374.952  376.191  1579.48  1606.77  3284.16  3286  1015.05
   378.8221  2265.4  2241.35  215.269  382.833  384.036  1743.82  1773.97  3627.84  3629.83  1095.42
   379.0727  2480.72  2454.59  219.787  390.979  392.134  1933.83  1967.27  4025.56  4027.74  1187.55
   379.3233  2730.47  2701.94  224.45  399.404  400.498  2154.75  2192.03  4488.45  4490.84  1293.84
   379.5739  3021.94  2990.61  229.265  408.125  409.142  2413.12  2454.88  5030.32  5032.96  1417.24
   379.8246  3364.22  3329.62  234.238  417.161  418.079  2717.07  2764.1  5668.42  5671.36  1561.42
   380.0752  3768.62  3730.15  239.378  426.531  427.327  3076.72  3129.99  6424.16  6427.46  1730.96
   380.3258  4249.1  4206.05  244.692  436.26  436.903  3504.62  3565.32  7324.11  7327.83  1931.53
   380.5764  4822.7  4774.18  250.189  446.374  446.825  4016.16  4085.73  8400.67  8404.9  2170.09
   380.8271  5509.57  5454.53  255.879  456.903  457.116  4629.78  4709.99  9692.51  9697.35  2454.96
   381.0777  6332.39  6269.53  261.771  467.88  467.798  5366.62  5459.61  11243.4  11249  2795.71
   381.3283  7313.86  7241.7  267.876  479.339  478.895  6248.92  6357.22  13098.5  13105  3202.36
   381.5789  8471.07  8387.95  274.205  491.314  490.432  7295.72  7422.18  15293.8  15301.3  3683.53
   381.8296  9803.88  9708.14  280.768  503.826  502.428  8513.87  8661.46  17836.2  17844.9  4242.32
   382.0802  11275.6  11165.9  287.575  516.874  514.893  9881.9  10053.2  20667.5  20677.3  4869.06
   382.3308  12787.4  12663.4  294.629  530.413  527.818  11326.7  11523.1  23615.7  23626.7  5530.78
   382.5815  14160.2  14023.1  301.933  544.334  541.165  12701.4  12921.6  26354.5  26366.4  6161.23
   382.8321  15152.1  15005.6  309.481  558.473  554.874  13787.5  14026.6  28423.1  28435.3  6661.86
   383.0827  15537  15386.8  317.269  572.655  568.878  14351.1  14600  29360.6  29372.7  6927.15
   383.3333  15217.1  15069.8  325.301  586.789  583.153  14247.7  14494.8  28924.1  28935.4  6891.96
   383.5840  14281  14142.4  333.593  600.935  597.74  13505  13739.3  27229.5  27239.6  6568.81
   383.8346  12950.6  12824.4  342.177  615.281  612.738  12306.2  12519.7  24682  24690.8  6040.33
   384.0852  11469.6  11357.2  351.088  630.06  628.27  10890.1  11079  21765  21772.6  5414.32
   384.3358  10021.4  9922.58  360.36  645.472  644.443  9456.67  9620.69  18862.4  18868.9  4780.99
   384.5865  8708.82  8622.3  370.021  661.653  661.337  8129  8269.97  16200.7  16206.4  4195.94
   384.8371  7571.39  7495.48  380.097  678.684  679.009  6961.95  7082.67  13874.5  13879.3  3683.92
   385.0877  6610.63  6543.66  390.61  696.614  697.503  5966.27  6069.71  11896  11900.2  3249.82
   385.3383  5810.11  5750.56  401.583  715.472  716.855  5130.1  5219.03  10236.9  10240.6  2888.32
   385.5890  5147.27  5093.84  413.04  735.288  737.104  4432.76  4509.58  8853.89  8857.17  2590.13
   385.8396  4599.44  4551.05  425.008  756.09  758.29  3852.04  3918.79  7702  7704.93  2345.27
   386.0902  4146.36  4102.1  437.514  777.914  780.458  3367.52  3425.85  6740.42  6743.04  2144.57
   386.3409  3770.9  3730.03  450.588  800.8  803.657  2961.68  3012.97  5934.37  5936.74  1980.16
   386.5915  3459  3420.92  464.262  824.798  827.943  2620.03  2665.39  5255.22  5257.37  1845.56
   386.8421  3199.31  3163.52  478.574  849.961  853.376  2330.79  2371.13  4679.72  4681.69  1735.52
   387.0927  2982.73  2948.81  493.561  876.352  880.023  2084.48  2120.55  4189.19  4191  1645.8
   387.3434  2801.94  2769.55  509.266  904.04  907.957  1873.5  1905.91  3768.62  3770.29  1573.03
   387.5940  2651.12  2619.97  525.733  933.1  937.258  1691.73  1720.99  3405.95  3407.51  1514.53
   387.8446  2525.58  2495.42  543.013  963.618  968.012  1534.26  1560.78  3091.48  3092.93  1468.15
   388.0952  2421.55  2392.16  561.158  995.684  1000.31  1397.1  1421.24  2817.34  2818.7  1432.16
   388.3459  2335.98  2307.19  580.227  1029.4  1034.26  1277.02  1299.08  2577.17  2578.45  1405.2
   388.5965  2266.43  2238.08  600.283  1064.88  1069.98  1171.4  1191.61  2365.73  2366.94  1386.16
   388.8471  2210.91  2182.84  621.395  1102.23  1107.58  1078.05  1096.65  2178.75  2179.89  1374.17
   389.0977  2167.79  2139.88  643.636  1141.6  1147.19  995.208  1012.37  2012.69  2013.78  1368.53
   389.3484  2135.78  2107.91  667.09  1183.12  1188.97  921.382  937.261  1864.61  1865.65  1368.68
   389.5990  2113.83  2085.89  691.844  1226.95  1233.06  855.34  870.073  1732.07  1733.05  1374.2
   389.8496  2101.08  2072.97  717.996  1273.26  1279.65  796.046  809.749  1613  1613.94  1384.76
   390.1003  2096.88  2068.5  745.652  1322.25  1328.92  742.628  755.403  1505.67  1506.57  1400.11
   390.3509  2100.69  2071.95  774.93  1374.11  1381.08  694.347  706.284  1408.61  1409.48  1420.1
   390.6015  2112.14  2082.95  805.958  1429.08  1436.36  650.577  661.754  1320.58  1321.41  1444.61
   390.8521  2130.95  2101.21  838.876  1487.4  1495.01  610.78  621.266  1240.5  1241.3  1473.62
   391.1028  2156.94  2126.56  873.842  1549.35  1557.31  574.497  584.352  1167.45  1168.23  1507.13
   391.3534  2190.02  2158.91  911.026  1615.24  1623.56  541.331  550.61  1100.66  1101.41  1545.21
   391.6040  2230.19  2198.27  950.619  1685.4  1694.11  510.941  519.692  1039.43  1040.16  1587.98
   391.8546  2277.54  2244.7  992.833  1760.21  1769.33  483.028  491.293  983.163  983.871  1635.6
   392.1053  2332.24  2298.38  1037.9  1840.07  1849.63  457.333  465.152  931.352  932.04  1688.3
   392.3559  2394.51  2359.53  1086.09  1925.47  1935.49  433.631  441.038  883.541  884.209  1746.34
   392.6065  2464.69  2428.47  1137.68  2016.9  2027.42  411.723  418.748  839.332  839.982  1810.05
   392.8571  2543.19  2505.62  1193  2114.96  2126.01  391.434  398.106  798.376  799.01  1879.82
   393.1078  2630.51  2591.45  1252.43  2220.28  2231.89  372.611  378.955  760.365  760.983  1956.1
   393.3584  2727.24  2686.56  1316.36  2333.6  2345.82  355.117  361.156  725.027  725.628  2039.42
   393.6090  2834.11  2791.64  1385.27  2455.73  2468.61  338.832  344.587  692.118  692.704  2130.37
   393.8596  2951.93  2907.52  1459.68  2587.61  2601.2  323.647  329.137  661.423  661.996  2229.66
   394.1103  3081.67  3035.15  1540.18  2730.29  2744.65  309.468  314.71  632.751  633.309  2338.1
   394.3609  3224.47  3175.63  1627.45  2884.97  2900.15  296.209  301.219  605.929  606.474  2456.61
   394.6115  3381.62  3330.23  1722.25  3053.01  3069.09  283.793  288.586  580.803  581.336  2586.25
   394.8622  3554.63  3500.46  1825.47  3235.97  3253.02  272.152  276.74  557.236  557.756  2728.25
   395.1128  3745.25  3688.03  1938.12  3435.64  3453.77  261.223  265.619  535.103  535.61  2884.02
   395.3634  3955.51  3894.94  2061.37  3654.1  3673.39  250.951  255.166  514.292  514.786  3055.21
   395.6140  4187.79  4123.52  2196.57  3893.73  3914.3  241.286  245.33  494.701  495.183  3243.71
   395.8647  4444.83  4376.48  2345.27  4157.32  4179.29  232.183  236.066  476.239  476.709  3451.74
   396.1153  4729.87  4657  2509.32  4448.09  4471.61  223.6  227.33  458.824  459.281  3681.88
   396.3659  5046.71  4968.82  2690.84  4769.84  4795.07  215.5  219.086  442.379  442.823  3937.18
   396.6165  5399.8  5316.34  2892.35  5127.02  5154.16  207.85  211.298  426.838  427.268  4221.19
   396.8672  5794.44  5704.76  3116.82  5524.91  5554.16  200.619  203.937  412.137  412.554  4538.15
   397.1178  6236.93  6140.27  3367.78  5969.75  6001.36  193.781  196.974  398.221  398.623  4893.08
   397.3684  6734.77  6630.28  3649.44  6469  6503.27  187.309  190.384  385.039  385.426  5291.97
   397.6190  7296.99  7183.65  3966.84  7031.62  7068.88  181.182  184.143  372.544  372.914  5742.01
   397.8697  7934.46  7811.11  4326.08  7668.4  7709.04  175.38  178.232  360.695  361.047  6251.87
   398.1203  8660.39  8525.64  4734.54  8392.4  8436.9  169.884  172.631  349.453  349.787  6832.08
   398.3709  9490.86  9343.08  5201.2  9219.59  9268.47  164.679  167.326  338.786  339.099  7495.46
   398.6216  10445.6  10282.8  5737.09  10169.5  10223.4  159.752  162.301  328.663  328.952  8257.72
   398.8722  11548.9  11368.9  6355.77  11266.1  11325.9  155.092  157.545  319.058  319.321  9138.23
   399.1228  12830.9  12630.7  7074.05  12539.3  12605.9  150.688  153.048  309.948  310.182  10160.9
   399.3734  14328.8  14105.2  7912.79  14026  14100.5  146.535  148.803  301.316  301.516  11355.6
   399.6241  16089.3  15838.1  8897.96  15772.3  15856  142.628  144.806  293.146  293.307  12759.2
   399.8747  18170.3  17886.4  10061.9  17835.5  17930.2  138.967  141.054  285.429  285.546  14418.1
   400.1253  20643.7  20321.1  11444.9  20286.9  20394.6  135.554  137.55  278.161  278.224  16389.4
   400.3759  23598.1  23229.2  13096.2  23214  23337.3  132.395  134.298  271.341  271.343  18743.8
   400.6266  27140.4  26716.1  15075.7  26722.8  26864.6  129.501  131.307  264.977  264.905  21566.4
   400.8772  31395.1  30904.1  17452.7  30936.2  31100.5  126.886  128.591  259.081  258.921  24956.3
   401.1278  36496.8  35926  20302.5  35987.7  36178.8  124.566  126.165  253.667  253.403  29020.7
   401.3784  42569.9  41904  23694.5  42000.2  42223.2  122.558  124.043  248.75  248.363  33858.8
   401.6291  49682.7  48905.4  27666.8  49041.3  49301.7  120.866  122.229  244.332  243.801  39524.8
   401.8797  57762  56858.2  32178.5  57038.7  57341.6  119.471  120.705  240.382  239.688  45960.5
   402.1303  66461.5  65421.5  37036.5  65649.7  65998.3  118.302  119.402  236.807  235.938  52890.3
   402.3810  75015.8  73841.8  41813.2  74116.8  74510.4  117.213  118.183  233.413  232.371  59704.3
   402.6316  82196.8  80910.4  45823.4  81225  81656.3  115.973  116.828  229.899  228.713  65424.5
   402.8822  86557  85202.3  48258.8  85541.9  85996.2  114.309  115.078  225.914  224.639  68898.1
   403.1328  87014.6  85652.7  48515.6  85997.1  86453.8  112.017  112.741  221.193  219.906  69263.4
   403.3835  83446.1  82140.1  46524.9  82468.5  82906.4  109.071  109.791  215.696  214.478  66422.1
   403.6341  76761.5  75560.1  42794.6  75856.3  76259.1  105.634  106.381  209.631  208.543  61099
   403.8847  68386.2  67315.9  38120.5  67571.1  67929.9  101.964  102.756  203.326  202.402  54429.3
   404.1353  59631  58697.8  33234.2  58910  59222.8  98.2991  99.1421  197.083  196.332  47457
   404.3860  51367.1  50563.2  28622.2  50734.9  51004.3  94.7965  95.6864  191.102  190.512  40876
   404.6366  44021.9  43333  24523.1  43468.8  43699.6  91.5314  92.4604  185.477  185.031  35026.7
   404.8872  37716.3  37126.1  21004.1  37231.3  37429  88.5231  89.482  180.229  179.906  30005.3
   405.1378  32404.2  31897.2  18039.8  31976.8  32146.6  85.76  86.7402  175.342  175.123  25775.1
   405.3885  27968.6  27531  15564.7  27589.5  27736  83.2179  84.2119  170.784  170.65  22243
   405.6391  24274.6  23894.8  13503.6  23936  24063.1  80.8694  81.8707  166.515  166.454  19301.6
   405.8897  21194.5  20863  11785.1  20890  21000.9  78.6883  79.692  162.503  162.5  16849.1
   406.1404  18617.4  18326.2  10347.4  18341.5  18438.9  76.652  77.654  158.714  158.761  14797.1
   406.3910  16450.7  16193.4  9138.77  16199.1  16285.1  74.7411  75.7383  155.124  155.213  13072
   406.6416  14619  14390.3  8117.09  14388.1  14464.5  72.9397  73.9296  151.71  151.833  11613.7
   406.8922  13061.4  12857.1  7248.39  12848.3  12916.5  71.2346  72.2152  148.453  148.606  10373.7
   407.1429  11729  11545.6  6505.42  11531.3  11592.6  69.6148  70.5848  145.339  145.517  9313.01
   407.3935  10582.7  10417.2  5866.28  10398.4  10453.6  68.0715  69.0296  142.354  142.553  8400.51
   407.6441  9590.81  9440.84  5313.35  9418.3  9468.29  66.5969  67.5425  139.488  139.705  7611.03
   407.8947  8727.96  8591.49  4832.4  8565.8  8611.26  65.1849  66.1173  136.731  136.963  6924.28
   408.1454  7973.44  7848.78  4411.91  7820.45  7861.95  63.8301  64.7489  134.074  134.321  6323.8
   408.3960  7310.4  7196.12  4042.47  7165.59  7203.61  62.5279  63.4328  131.513  131.771  5796.16
   408.6466  6725.06  6619.92  3716.37  6587.56  6622.52  61.2744  62.1653  129.039  129.307  5330.39
   408.8972  6206.01  6109  3427.27  6075.11  6107.35  60.0661  60.9429  126.648  126.925  4917.41
   409.1479  5743.86  5654.07  3169.91  5618.91  5648.73  58.9002  59.7628  124.335  124.62  4549.73
   409.3985  5330.74  5247.42  2939.9  5211.21  5238.86  57.7738  58.6224  122.096  122.388  4221.1
   409.6491  4960.09  4882.56  2733.58  4845.5  4871.21  56.6848  57.5194  119.926  120.224  3926.27
   409.8997  4626.38  4554.07  2547.87  4516.31  4540.28  55.6309  56.4516  117.823  118.127  3660.86
   410.1504  4324.94  4257.35  2380.16  4219.03  4241.41  54.6102  55.4173  115.783  116.091  3421.14
   410.4010  4051.8  3988.47  2228.23  3949.72  3970.67  53.6211  54.4147  113.803  114.116  3203.94
   410.6516  3803.57  3744.12  2090.19  3705.03  3724.69  52.6619  53.4422  111.881  112.197  3006.58
   410.9023  3577.34  3521.44  1964.42  3482.1  3500.57  51.7313  52.4984  110.013  110.333  2826.73
   411.1529  3370.63  3317.95  1849.53  3278.44  3295.83  50.8278  51.5821  108.198  108.521  2662.42
   411.4035  3181.27  3131.55  1744.31  3091.94  3108.34  49.9504  50.6919  106.433  106.759  2511.92
   411.6541  3007.4  2960.39  1647.72  2920.73  2936.22  49.0977  49.8268  104.717  105.044  2373.74
   411.9048  2847.37  2802.87  1558.86  2763.21  2777.87  48.2688  48.9857  103.047  103.377  2246.59
   412.1554  2699.79  2657.59  1476.92  2617.97  2631.86  47.4627  48.1676  101.421  101.753  2129.33
   412.4060  2563.38  2523.32  1401.22  2483.79  2496.96  46.6784  47.3716  99.8385  100.172  2020.98
   412.6566  2437.07  2398.98  1331.14  2359.57  2372.08  45.9151  46.5968  98.2971  98.632  1920.65
   412.9073  2319.89  2283.63  1266.14  2244.36  2256.26  45.172  45.8424  96.7954  97.1316  1827.59
   413.1579  2210.98  2176.42  1205.76  2137.31  2148.65  44.4483  45.1076  95.332  95.6694  1741.12
   413.4085  2109.59  2076.61  1149.56  2037.69  2048.5  43.7432  44.3918  93.9054  94.2439  1660.62
   413.6591  2015.04  1983.54  1097.16  1944.83  1955.14  43.0561  43.6941  92.5145  92.8539  1585.56
   413.9098  1926.74  1896.62  1048.25  1858.12  1867.97  42.3864  43.014  91.158  91.4982  1515.48
   414.1604  1844.14  1815.31  1002.51  1777.05  1786.47  41.7334  42.3508  89.8346  90.1755  1449.93
   414.4110  1766.78  1739.15  959.688  1701.14  1710.16  41.0965  41.704  88.5433  88.8849  1388.55
   414.6617  1694.21  1667.71  919.532  1629.96  1638.6  40.4752  41.0729  87.283  87.6251  1330.98
   414.9123  1626.05  1600.62  881.829  1563.13  1571.41  39.8689  40.4571  86.0527  86.3952  1276.91
   415.1629  1561.95  1537.52  846.386  1500.3  1508.25  39.2771  39.856  84.8513  85.1943  1226.08
   415.4135  1501.6  1478.11  813.025  1441.17  1448.81  38.6994  39.2692  83.678  84.0213  1178.22
   415.6642  1444.7  1422.1  781.589  1385.44  1392.79  38.1353  38.6961  82.5319  82.8754  1133.12
   415.9148  1391.01  1369.25  751.932  1332.88  1339.94  37.5844  38.1364  81.412  81.7558  1090.56
   416.1654  1340.29  1319.31  723.923  1283.23  1290.03  37.0461  37.5895  80.3176  80.6615  1050.36
   416.4160  1292.31  1272.08  697.443  1236.29  1242.84  36.5202  37.0552  79.2479  79.5919  1012.34
   416.6667  1246.89  1227.37  672.384  1191.87  1198.18  36.0062  36.533  78.2021  78.5462  976.354
   416.9173  1203.85  1185  648.645  1149.79  1155.88  35.5038  36.0225  77.1795  77.5236  942.258
   417.1679  1163.02  1144.81  626.136  1109.89  1115.77  35.0126  35.5234  76.1793  76.5235  909.923
   417.4185  1124.26  1106.65  604.774  1072.03  1077.71  34.5323  35.0353  75.201  75.5452  879.228
   417.6692  1087.42  1070.39  584.483  1036.06  1041.55  34.0625  34.558  74.2439  74.588  850.066
   417.9198  1052.39  1035.91  565.192  1001.86  1007.17  33.6029  34.091  73.3073  73.6514  822.335
   418.1704  1019.05  1003.08  546.838  969.329  974.463  33.1533  33.6341  72.3907  72.7346  795.944
   418.4211  987.283  971.812  529.359  938.348  943.317  32.7132  33.1869  71.4935  71.8373  770.808
   418.6717  957  942  512.703  908.823  913.636  32.2826  32.7493  70.615  70.9587  746.849
   418.9223  928.108  913.558  496.818  880.666  885.329  31.861  32.3208  69.7549  70.0984  723.994
   419.1729  900.523  886.402  481.658  853.793  858.314  31.4482  31.9014  68.9125  69.2558  702.177
   419.4236  874.166  860.456  467.179  828.127  832.512  31.0441  31.4906  68.0874  68.4305  681.336
   419.6742  848.967  835.649  453.341  803.599  807.853  30.6482  31.0883  67.2791  67.622  661.413
   419.9248  824.858  811.915  440.107  780.14  784.271  30.2605  30.6942  66.4871  66.8298  642.356
   420.1754  801.777  789.194  427.443  757.692  761.703  29.8806  30.3082  65.711  66.0535  624.115
   420.4261  779.666  767.427  415.316  736.196  740.093  29.5084  29.9299  64.9504  65.2926  606.643
   420.6767  758.472  746.563  403.696  715.599  719.387  29.1436  29.5592  64.2048  64.5467  589.899
   420.9273  738.145  726.551  392.556  695.852  699.536  28.7861  29.1958  63.4739  63.8155  573.843
   421.1779  718.637  707.347  381.87  676.91  680.493  28.4356  28.8396  62.7572  63.0985  558.437
   421.4286  699.905  688.906  371.613  658.729  662.215  28.0921  28.4904  62.0543  62.3954  543.646
   421.6792  681.909  671.19  361.763  641.269  644.663  27.7552  28.148  61.365  61.7057  529.439
   421.9298  664.61  654.16  352.299  624.492  627.797  27.4248  27.8122  60.6889  61.0293  515.785
   422.1805  647.973  637.781  343.2  608.363  611.583  27.1007  27.4828  60.0255  60.3656  502.655
   422.4311  631.964  622.021  334.448  592.85  595.988  26.7829  27.1597  59.3747  59.7144  490.024
   422.6817  616.551  606.849  326.026  577.922  580.98  26.471  26.8428  58.736  59.0754  477.866
   422.9323  601.707  592.235  317.918  563.549  566.531  26.165  26.5318  58.1092  58.4483  466.158
   423.1830  587.402  578.152  310.108  549.705  552.614  25.8648  26.2266  57.4939  57.8327  454.877
   423.4336  573.611  564.575  302.582  536.364  539.202  25.5701  25.9271  56.89  57.2283  444.004
   423.6842  560.31  551.481  295.325  523.501  526.271  25.2809  25.6331  56.297  56.635  433.519
   423.9348  547.475  538.845  288.326  511.095  513.799  24.9969  25.3445  55.7148  56.0524  423.404
   424.1855  535.085  526.648  281.573  499.124  501.764  24.7181  25.0611  55.143  55.4803  413.64
   424.4361  523.119  514.868  275.054  487.568  490.147  24.4444  24.7828  54.5815  54.9184  404.214
   424.6867  511.559  503.487  268.758  476.408  478.928  24.1756  24.5096  54.0299  54.3664  395.108
   424.9373  500.386  492.488  262.675  465.626  468.089  23.9116  24.2413  53.488  53.8242  386.308
   425.1880  489.583  481.852  256.796  455.205  457.613  23.6522  23.9777  52.9556  53.2914  377.802
   425.4386  479.133  471.565  251.112  445.13  447.484  23.3975  23.7187  52.4325  52.7679  369.575
   425.6892  469.022  461.61  245.615  435.384  437.687  23.1472  23.4643  51.9185  52.2535  361.617
   425.9398  459.234  451.975  240.295  425.955  428.208  22.9013  23.2143  51.4133  51.7479  353.915
   426.1905  449.757  442.645  235.147  416.829  419.033  22.6596  22.9687  50.9167  51.2509  346.458
   426.4411  440.577  433.607  230.162  407.992  410.15  22.4221  22.7273  50.4286  50.7624  339.236
   426.6917  431.681  424.849  225.333  399.433  401.545  22.1887  22.49  49.9487  50.2821  332.24
   426.9424  423.059  416.361  220.655  391.14  393.208  21.9592  22.2567  49.4768  49.8099  325.459
   427.1930  414.698  408.13  216.12  383.102  385.128  21.7336  22.0274  49.0128  49.3455  318.886
   427.4436  406.589  400.146  211.724  375.31  377.294  21.5118  21.802  48.5565  48.8888  312.511
   427.6942  398.721  392.4  207.46  367.752  369.696  21.2937  21.5803  48.1077  48.4396  306.328
   427.9449  391.085  384.883  203.324  360.42  362.325  21.0792  21.3623  47.6663  47.9978  300.327
   428.1955  383.672  377.584  199.31  353.305  355.172  20.8683  21.1479  47.2321  47.5631  294.503
   428.4461  376.472  370.497  195.413  346.398  348.229  20.6608  20.937  46.8048  47.1355  288.848
   428.6967  369.479  363.612  191.63  339.691  341.487  20.4567  20.7295  46.3845  46.7148  283.356
   428.9474  362.684  356.922  187.955  333.177  334.938  20.2559  20.5254  45.9709  46.3007  278.02
   429.1980  356.079  350.42  184.385  326.849  328.576  20.0584  20.3247  45.5638  45.8933  272.835
   429.4486  349.658  344.098  180.915  320.698  322.393  19.864  20.1271  45.1632  45.4923  267.795
   429.6992  343.414  337.951  177.543  314.72  316.383  19.6728  19.9327  44.7689  45.0976  262.895
   429.9499  337.34  331.971  174.263  308.907  310.54  19.4845  19.7414  44.3808  44.709  258.129
   430.2005  331.43  326.152  171.074  303.253  304.856  19.2993  19.553  43.9987  44.3265  253.493
   430.4511  325.678  320.49  167.971  297.753  299.327  19.1169  19.3677  43.6225  43.9499  248.982
   430.7018  320.079  314.978  164.952  292.402  293.947  18.9374  19.1852  43.252  43.579  244.591
   430.9524  314.627  309.61  162.013  287.193  288.71  18.7607  19.0056  42.8873  43.2139  240.317
   431.2030  309.318  304.383  159.153  282.121  283.612  18.5867  18.8287  42.528  42.8542  236.155
   431.4536  304.145  299.29  156.367  277.183  278.648  18.4154  18.6546  42.1742  42.5  232.101
   431.7043  299.105  294.328  153.653  272.373  273.813  18.2467  18.4831  41.8257  42.1511  228.151
   431.9549  294.193  289.492  151.01  267.688  269.102  18.0805  18.3142  41.4825  41.8074  224.302
   432.2055  289.404  284.778  148.434  263.122  264.512  17.9169  18.1479  41.1443  41.4689  220.551
   432.4561  284.735  280.181  145.923  258.671  260.038  17.7557  17.9841  40.8111  41.1353  216.895
   432.7068  280.181  275.698  143.476  254.333  255.677  17.5969  17.8227  40.4828  40.8066  213.329
   432.9574  275.739  271.325  141.089  250.103  251.424  17.4405  17.6637  40.1593  40.4827  209.851
   433.2080  271.406  267.058  138.762  245.977  247.276  17.2864  17.5071  39.8406  40.1635  206.459
   433.4586  267.176  262.894  136.492  241.952  243.23  17.1346  17.3528  39.5264  39.8489  203.149
   433.7093  263.048  258.83  134.276  238.025  239.283  16.985  17.2007  39.2167  39.5389  199.919
   433.9599  259.018  254.862  132.115  234.194  235.431  16.8376  17.0509  38.9115  39.2333  196.766
   434.2105  255.083  250.988  130.005  230.453  231.671  16.6923  16.9032  38.6106  38.932  193.688
   434.4612  251.24  247.204  127.945  226.802  228  16.5491  16.7576  38.314  38.635  190.683
   434.7118  247.485  243.508  125.933  223.236  224.416  16.4079  16.6142  38.0216  38.3421  187.747
   434.9624  243.818  239.897  123.969  219.754  220.915  16.2688  16.4728  37.7332  38.0534  184.88
   435.2130  240.233  236.368  122.05  216.353  217.496  16.1316  16.3334  37.4489  37.7686  182.078
   435.4637  236.73  232.919  120.176  213.03  214.155  15.9964  16.1959  37.1685  37.4879  179.34
   435.7143  233.306  229.548  118.344  209.783  210.891  15.8631  16.0604  36.892  37.2109  176.665
   435.9649  229.958  226.252  116.553  206.61  207.701  15.7316  15.9268  36.6193  36.9378  174.049
   436.2155  226.683  223.028  114.804  203.508  204.582  15.602  15.795  36.3503  36.6684  171.492
   436.4662  223.481  219.875  113.093  200.475  201.534  15.4741  15.6651  36.0849  36.4027  168.991
   436.7168  220.349  216.791  111.42  197.509  198.552  15.3481  15.537  35.8232  36.1405  166.546
   436.9674  217.284  213.774  109.784  194.609  195.637  15.2237  15.4106  35.5649  35.8819  164.153
   437.2180  214.285  210.822  108.183  191.772  192.785  15.1011  15.2859  35.3101  35.6267  161.812
   437.4687  211.35  207.932  106.617  188.997  189.995  14.9801  15.163  35.0587  35.3749  159.522
   437.7193  208.477  205.104  105.086  186.281  187.265  14.8607  15.0417  34.8107  35.1264  157.28
   437.9699  205.665  202.335  103.586  183.624  184.593  14.743  14.922  34.5658  34.8812  155.086
   438.2206  202.911  199.623  102.119  181.023  181.978  14.6268  14.8039  34.3243  34.6392  152.938
   438.4712  200.214  196.968  100.683  178.477  179.419  14.5122  14.6874  34.0858  34.4004  150.835
   438.7218  197.572  194.367  99.2762  175.984  176.913  14.3991  14.5725  33.8505  34.1647  148.776
   438.9724  194.985  191.82  97.8991  173.543  174.459  14.2875  14.4591  33.6182  33.932  146.759
   439.2231  192.45  189.324  96.5505  171.152  172.055  14.1773  14.3471  33.3888  33.7023  144.783
   439.4737  189.966  186.878  95.2295  168.81  169.701  14.0686  14.2366  33.1624  33.4755  142.847
   439.7243  187.531  184.482  93.9354  166.516  167.395  13.9613  14.1276  32.9389  33.2516  140.951
   439.9749  185.145  182.133  92.6675  164.269  165.136  13.8554  14.02  32.7183  33.0305  139.092
   440.2256  182.806  179.83  91.4251  162.066  162.922  13.7508  13.9137  32.5004  32.8122  137.27
   440.4762  180.513  177.572  90.2074  159.908  160.752  13.6476  13.8088  32.2852  32.5967  135.484
   440.7268  178.265  175.358  89.014  157.792  158.625  13.5458  13.7053  32.0727  32.3838  133.734
   440.9774  176.06  173.188  87.844  155.719  156.54  13.4452  13.6031  31.8629  32.1736  132.017
   441.2281  173.897  171.058  86.6969  153.685  154.496  13.3458  13.5021  31.6556  31.966  130.334
   441.4787  171.776  168.97  85.5722  151.691  152.492  13.2478  13.4025  31.4509  31.7609  128.683
   441.7293  169.694  166.921  84.4692  149.736  150.526  13.1509  13.3041  31.2488  31.5583  127.064
   441.9799  167.652  164.91  83.3874  147.819  148.599  13.0553  13.2069  31.049  31.3582  125.475
   442.2306  165.648  162.937  82.3262  145.937  146.708  12.9609  13.1109  30.8517  31.1606  123.917
   442.4812  163.682  161.001  81.2851  144.092  144.852  12.8676  13.0161  30.6568  30.9653  122.387
   442.7318  161.751  159.101  80.2636  142.281  143.032  12.7755  12.9225  30.4643  30.7723  120.887
   442.9825  159.857  157.235  79.2613  140.505  141.246  12.6845  12.83  30.274  30.5817  119.414
   443.2331  157.996  155.404  78.2776  138.761  139.493  12.5946  12.7387  30.086  30.3933  117.968
   443.4837  156.17  153.605  77.3121  137.049  137.773  12.5058  12.6485  29.9002  30.2071  116.548
   443.7343  154.376  151.839  76.3643  135.369  136.084  12.4181  12.5593  29.7166  30.0232  115.155
   443.9850  152.614  150.105  75.4339  133.72  134.426  12.3314  12.4713  29.5352  29.8414  113.786
   444.2356  150.884  148.401  74.5203  132.101  132.798  12.2458  12.3843  29.3559  29.6617  112.442
   444.4862  149.185  146.728  73.6233  130.51  131.199  12.1612  12.2983  29.1787  29.4841  111.123
   444.7368  147.515  145.084  72.7423  128.949  129.629  12.0776  12.2133  29.0035  29.3086  109.826
   444.9875  145.874  143.469  71.877  127.415  128.087  11.995  12.1294  28.8304  29.135  108.553
   445.2381  144.262  141.882  71.0271  125.908  126.573  11.9133  12.0465  28.6592  28.9635  107.301
   445.4887  142.678  140.322  70.1922  124.428  125.085  11.8326  11.9645  28.49  28.7939  106.072
   445.7393  141.121  138.789  69.3719  122.974  123.623  11.7529  11.8835  28.3227  28.6263  104.864
   445.9900  139.59  137.282  68.5658  121.545  122.187  11.6741  11.8034  28.1573  28.4605  103.677
   446.2406  138.086  135.801  67.7738  120.141  120.775  11.5962  11.7242  27.9938  28.2967  102.51
   446.4912  136.607  134.345  66.9954  118.762  119.388  11.5192  11.646  27.8321  28.1346  101.362
   446.7419  135.152  132.913  66.2303  117.405  118.025  11.4431  11.5687  27.6723  27.9744  100.235
   446.9925  133.722  131.505  65.4782  116.072  116.684  11.3679  11.4922  27.5142  27.8159  99.1261
   447.2431  132.315  130.12  64.7389  114.762  115.367  11.2935  11.4167  27.3578  27.6592  98.0359
   447.4937  130.932  128.758  64.012  113.473  114.072  11.2199  11.3419  27.2032  27.5042  96.9639
   447.7444  129.572  127.419  63.2973  112.206  112.798  11.1472  11.2681  27.0503  27.3509  95.9097
   447.9950  128.233  126.101  62.5944  110.96  111.546  11.0753  11.195  26.899  27.1993  94.8728
   448.2456  126.916  124.804  61.9032  109.735  110.314  11.0043  11.1228  26.7494  27.0493  93.8529
   448.4962  125.621  123.529  61.2234  108.53  109.102  10.934  11.0514  26.6014  26.901  92.8496
   448.7469  124.346  122.274  60.5548  107.345  107.911  10.8645  10.9808  26.4551  26.7543  91.8625
   448.9975  123.091  121.039  59.897  106.179  106.739  10.7957  10.9109  26.3102  26.6091  90.8913
   449.2481  121.857  119.823  59.2499  105.032  105.586  10.7277  10.8419  26.167  26.4655  89.9357
   449.4987  120.642  118.627  58.6132  103.903  104.451  10.6605  10.7736  26.0252  26.3234  88.9953
   449.7494  119.446  117.449  57.9867  102.792  103.335  10.594  10.706  25.885  26.1828  88.0698
   450.0000  118.268  116.29  57.3702  101.7  102.236  10.5282  10.6392  25.7462  26.0437  87.1589