File: examples/mos2-example2/ref/raman_spectra3.dat
#Raman spectra
#Laser energy   2.54 eV
#Raman shift (cm-1), Raman Spectra (XX,YY,ZZ,s+s+,s-s-,XY,YX,s+s-,s-s+,nonpol)
   350.0000  161.148  156.868  42.2488  80.3836  80.9895  67.5883  68.5353  146.053  146.713  85.7622
   350.2506  162.931  158.607  42.6506  81.1483  81.7598  68.5533  69.5159  148.02  148.68  86.6668
   350.5013  164.748  160.381  43.0581  81.9239  82.5412  69.5407  70.5193  150.032  150.692  87.5887
   350.7519  166.601  162.189  43.4716  82.7107  83.3338  70.5512  71.546  152.092  152.751  88.5285
   351.0025  168.491  164.033  43.891  83.5089  84.1379  71.5854  72.597  154.2  154.86  89.4865
   351.2531  170.418  165.915  44.3165  84.3187  84.9536  72.6441  73.6728  156.359  157.019  90.4632
   351.5038  172.385  167.834  44.7482  85.1404  85.7813  73.7282  74.7743  158.57  159.229  91.4591
   351.7544  174.391  169.792  45.1862  85.9741  86.6211  74.8383  75.9024  160.834  161.494  92.4748
   352.0050  176.438  171.79  45.6307  86.8201  87.4733  75.9754  77.0578  163.154  163.814  93.5108
   352.2556  178.527  173.829  46.0818  87.6786  88.3382  77.1402  78.2415  165.53  166.19  94.5675
   352.5063  180.66  175.911  46.5396  88.55  89.2159  78.3339  79.4544  167.966  168.626  95.6456
   352.7569  182.837  178.036  47.0043  89.4344  90.1068  79.5571  80.6974  170.463  171.123  96.7456
   353.0075  185.06  180.206  47.476  90.3321  91.0111  80.8111  81.9715  173.023  173.683  97.8682
   353.2581  187.33  182.422  47.9548  91.2435  91.9291  82.0967  83.2779  175.647  176.308  99.0139
   353.5088  189.65  184.686  48.4409  92.1686  92.861  83.415  84.6175  178.339  179  100.184
   353.7594  192.019  186.999  48.9344  93.1079  93.8072  84.7672  85.9915  181.101  181.761  101.378
   354.0100  194.44  189.363  49.4354  94.0617  94.7679  86.1545  87.4011  183.934  184.595  102.597
   354.2607  196.915  191.779  49.9442  95.0302  95.7435  87.578  88.8475  186.842  187.503  103.842
   354.5113  199.444  194.248  50.4609  96.0137  96.7341  89.039  90.332  189.827  190.488  105.114
   354.7619  202.03  196.773  50.9857  97.0125  97.7403  90.5388  91.856  192.891  193.553  106.413
   355.0125  204.675  199.355  51.5187  98.0271  98.7622  92.0788  93.4208  196.039  196.701  107.741
   355.2632  207.38  201.995  52.0601  99.0576  99.8002  93.6605  95.0279  199.271  199.934  109.098
   355.5138  210.147  204.697  52.6101  100.104  100.855  95.2853  96.6789  202.593  203.256  110.485
   355.7644  212.978  207.462  53.1688  101.168  101.926  96.9548  98.3753  206.006  206.67  111.903
   356.0150  215.876  210.291  53.7364  102.249  103.014  98.6708  100.119  209.515  210.179  113.353
   356.2657  218.842  213.188  54.3132  103.347  104.12  100.435  101.911  213.122  213.787  114.836
   356.5163  221.88  216.153  54.8994  104.462  105.244  102.249  103.754  216.832  217.498  116.352
   356.7669  224.99  219.191  55.495  105.596  106.386  104.115  105.65  220.649  221.315  117.904
   357.0175  228.177  222.303  56.1005  106.749  107.547  106.034  107.601  224.576  225.243  119.492
   357.2682  231.442  225.491  56.7158  107.92  108.727  108.01  109.608  228.617  229.285  121.118
   357.5188  234.788  228.758  57.3414  109.111  109.926  110.043  111.674  232.778  233.447  122.782
   357.7694  238.218  232.108  57.9773  110.322  111.146  112.137  113.801  237.063  237.733  124.486
   358.0201  241.735  235.543  58.6239  111.553  112.386  114.293  115.993  241.477  242.148  126.231
   358.2707  245.342  239.066  59.2814  112.804  113.646  116.515  118.25  246.026  246.697  128.019
   358.5213  249.043  242.68  59.95  114.077  114.928  118.805  120.577  250.713  251.386  129.851
   358.7719  252.841  246.389  60.6299  115.372  116.232  121.165  122.975  255.546  256.22  131.729
   359.0226  256.739  250.197  61.3215  116.688  117.558  123.599  125.448  260.53  261.205  133.654
   359.2732  260.741  254.106  62.025  118.028  118.907  126.11  127.999  265.672  266.348  135.628
   359.5238  264.852  258.121  62.7406  119.39  120.279  128.7  130.631  270.979  271.656  137.654
   359.7744  269.075  262.246  63.4687  120.777  121.675  131.374  133.348  276.456  277.135  139.731
   360.0251  273.415  266.486  64.2095  122.187  123.096  134.135  136.153  282.113  282.793  141.864
   360.2757  277.877  270.844  64.9634  123.623  124.542  136.987  139.05  287.956  288.638  144.053
   360.5263  282.464  275.326  65.7306  125.084  126.013  139.933  142.044  293.994  294.677  146.301
   360.7769  287.184  279.936  66.5115  126.57  127.51  142.979  145.138  300.235  300.921  148.61
   361.0276  292.04  284.68  67.3064  128.084  129.035  146.127  148.338  306.69  307.377  150.983
   361.2782  297.038  289.564  68.1157  129.625  130.586  149.384  151.647  313.366  314.055  153.422
   361.5288  302.185  294.592  68.9395  131.194  132.166  152.754  155.071  320.276  320.967  155.929
   361.7794  307.487  299.772  69.7785  132.791  133.775  156.243  158.616  327.429  328.122  158.508
   362.0301  312.95  305.11  70.6328  134.418  135.414  159.856  162.286  334.838  335.533  161.162
   362.2807  318.582  310.613  71.5029  136.075  137.082  163.598  166.089  342.514  343.211  163.892
   362.5313  324.39  316.288  72.3892  137.763  138.782  167.477  170.03  350.47  351.17  166.704
   362.7820  330.382  322.143  73.292  139.483  140.513  171.499  174.116  358.72  359.423  169.6
   363.0326  336.565  328.186  74.2119  141.235  142.277  175.671  178.355  367.28  367.985  172.584
   363.2832  342.95  334.425  75.1491  143.02  144.075  180  182.754  376.163  376.872  175.66
   363.5338  349.546  340.871  76.1042  144.839  145.907  184.495  187.32  385.387  386.099  178.832
   363.7845  356.361  347.532  77.0777  146.693  147.773  189.164  192.064  394.97  395.685  182.104
   364.0351  363.408  354.419  78.0699  148.583  149.676  194.016  196.994  404.93  405.648  185.481
   364.2857  370.697  361.543  79.0814  150.51  151.616  199.06  202.12  415.286  416.008  188.967
   364.5363  378.241  368.916  80.1126  152.474  153.594  204.308  207.452  426.062  426.787  192.569
   364.7870  386.051  376.551  81.1642  154.477  155.611  209.77  213.001  437.278  438.007  196.291
   365.0376  394.142  384.459  82.2366  156.52  157.668  215.458  218.78  448.959  449.693  200.14
   365.2882  402.528  392.657  83.3304  158.604  159.766  221.385  224.802  461.132  461.87  204.122
   365.5388  411.225  401.159  84.4461  160.73  161.906  227.563  231.079  473.823  474.566  208.242
   365.7895  420.249  409.98  85.5844  162.899  164.089  234.008  237.627  487.064  487.812  212.51
   366.0401  429.617  419.14  86.7458  165.111  166.317  240.734  244.461  500.886  501.638  216.932
   366.2907  439.35  428.655  87.931  167.37  168.591  247.759  251.599  515.322  516.08  221.516
   366.5414  449.467  438.547  89.1407  169.675  170.911  255.1  259.057  530.411  531.175  226.271
   366.7920  459.99  448.836  90.3755  172.028  173.28  262.777  266.857  546.192  546.961  231.206
   367.0426  470.943  459.546  91.6361  174.43  175.698  270.81  275.019  562.707  563.483  236.333
   367.2932  482.351  470.701  92.9233  176.884  178.167  279.221  283.565  580.002  580.785  241.66
   367.5439  494.241  482.328  94.2378  179.389  180.689  288.035  292.52  598.128  598.918  247.201
   367.7945  506.642  494.455  95.5803  181.948  183.265  297.277  301.91  617.137  617.935  252.967
   368.0451  519.587  507.115  96.9517  184.562  185.896  306.976  311.764  637.089  637.895  258.972
   368.2957  533.109  520.339  98.3529  187.233  188.584  317.162  322.113  658.046  658.86  265.231
   368.5464  547.245  534.166  99.7846  189.963  191.331  327.868  332.991  680.076  680.899  271.759
   368.7970  562.036  548.633  101.248  192.752  194.138  339.129  344.433  703.254  704.087  278.573
   369.0476  577.526  563.784  102.743  195.604  197.008  350.986  356.479  727.66  728.503  285.692
   369.2982  593.761  579.665  104.272  198.52  199.942  363.48  369.173  753.382  754.236  293.136
   369.5489  610.794  596.327  105.836  201.501  202.942  376.657  382.561  780.516  781.381  300.927
   369.7995  628.681  613.825  107.434  204.55  206.01  390.568  396.695  809.167  810.044  309.088
   370.0501  647.483  632.22  109.07  207.67  209.148  405.269  411.631  839.448  840.338  317.646
   370.3008  667.268  651.577  110.742  210.861  212.358  420.819  427.431  871.486  872.39  326.628
   370.5514  688.11  671.968  112.454  214.126  215.643  437.285  444.161  905.418  906.336  336.066
   370.8020  710.088  693.473  114.205  217.468  219.005  454.74  461.896  941.395  942.329  345.993
   371.0526  733.294  716.179  115.998  220.889  222.446  473.265  480.717  979.584  980.535  356.447
   371.3033  757.824  740.182  117.833  224.392  225.969  492.948  500.715  1020.17  1021.14  367.469
   371.5539  783.786  765.589  119.713  227.979  229.576  513.886  521.988  1063.35  1064.34  379.104
   371.8045  811.302  792.516  121.637  231.653  233.271  536.189  544.648  1109.36  1110.37  391.402
   372.0551  840.503  821.094  123.608  235.417  237.056  559.976  568.816  1158.44  1159.47  404.418
   372.3058  871.537  851.468  125.628  239.274  240.933  585.381  594.628  1210.87  1211.93  418.213
   372.5564  904.568  883.797  127.697  243.227  244.907  612.553  622.235  1266.97  1268.05  432.856
   372.8070  939.781  918.263  129.818  247.279  248.98  641.658  651.806  1327.07  1328.18  448.423
   373.0576  977.379  955.067  131.992  251.434  253.156  672.882  683.531  1391.56  1392.7  464.999
   373.3083  1017.59  994.433  134.221  255.695  257.438  706.435  717.621  1460.89  1462.06  482.678
   373.5589  1060.68  1036.61  136.508  260.066  261.83  742.551  754.315  1535.53  1536.74  501.568
   373.8095  1106.94  1081.9  138.853  264.551  266.335  781.495  793.883  1616.04  1617.29  521.788
   374.0602  1156.7  1130.61  141.259  269.154  270.958  823.568  836.63  1703.05  1704.34  543.476
   374.3108  1210.32  1183.11  143.728  273.879  275.703  869.109  882.9  1797.26  1798.6  566.783
   374.5614  1268.25  1239.83  146.262  278.731  280.575  918.505  933.087  1899.49  1900.88  591.887
   374.8120  1330.96  1301.23  148.864  283.714  285.577  972.199  987.641  2010.65  2012.09  618.985
   375.0627  1399.01  1367.87  151.536  288.833  290.715  1030.7  1047.08  2131.8  2133.31  648.306
   375.3133  1473.05  1440.37  154.281  294.094  295.993  1094.58  1111.98  2264.16  2265.73  680.111
   375.5639  1553.82  1519.46  157.101  299.503  301.418  1164.52  1183.04  2409.13  2410.78  714.703
   375.8145  1642.16  1605.98  159.999  305.064  306.994  1241.29  1261.04  2568.34  2570.07  752.43
   376.0652  1739.09  1700.9  162.978  310.784  312.728  1325.79  1346.9  2743.67  2745.5  793.697
   376.3158  1845.76  1805.37  166.041  316.67  318.625  1419.09  1441.69  2937.34  2939.27  838.976
   376.5664  1963.54  1920.73  169.191  322.728  324.692  1522.41  1546.67  3151.94  3153.98  888.822
   376.8170  2094.04  2048.54  172.432  328.966  330.936  1637.21  1663.31  3390.51  3392.69  943.884
   377.0677  2239.17  2190.7  175.767  335.392  337.365  1765.22  1793.36  3656.68  3659  1004.93
   377.3183  2401.2  2349.41  179.199  342.014  343.985  1908.46  1938.9  3954.74  3957.23  1072.88
   377.5689  2582.85  2527.34  182.734  348.842  350.806  2069.4  2102.42  4289.84  4292.52  1148.82
   377.8195  2787.38  2727.7  186.375  355.884  357.836  2250.97  2286.89  4668.16  4671.06  1234.07
   378.0702  3018.74  2954.35  190.125  363.152  365.084  2456.71  2495.93  5097.17  5100.32  1330.2
   378.3208  3281.75  3211.99  193.991  370.657  372.56  2690.92  2733.89  5585.94  5589.39  1439.13
   378.5714  3582.25  3506.39  197.976  378.411  380.276  2958.86  3006.12  6145.58  6149.37  1563.21
   378.8221  3927.48  3844.61  202.086  386.43  388.242  3266.98  3319.17  6789.69  6793.87  1705.3
   379.0727  4326.34  4235.37  206.326  394.728  396.472  3623.21  3681.1  7535.08  7539.74  1868.95
   379.3233  4789.87  4689.51  210.702  403.322  404.979  4037.4  4101.93  8402.6  8407.81  2058.54
   379.5739  5331.81  5220.48  215.221  412.234  413.779  4521.8  4594.08  9418.14  9424.02  2279.52
   379.8246  5969.29  5845.07  219.887  421.484  422.889  5091.64  5173.05  10614  10620.7  2538.68
   380.0752  6723.59  6584.13  224.71  431.1  432.328  5765.92  5858.13  12030.4  12038  2844.46
   380.3258  7621.05  7463.46  229.695  441.11  442.116  6568.15  6673.21  13716.9  13725.7  3207.34
   380.5764  8693.73  8514.5  234.852  451.55  452.279  7527.2  7647.61  15734.5  15744.7  3640.15
   380.8271  9979.66  9774.5  240.189  462.459  462.842  8677.61  8816.45  18155.5  18167.4  4158.27
   381.0777  11521.5  11285.3  245.714  473.879  473.835  10059  10220  21062.1  21076  4779.35
   381.3283  13362.1  13088.8  251.439  485.858  485.289  11713.2  11900.6  24538.7  24554.9  5521.92
   381.5789  15533.6  15216.6  257.372  498.436  497.231  13675.7  13894.6  28653  28671.9  6401.87
   381.8296  18035.8  17668.4  263.524  511.638  509.685  15959.5  16215  33417.8  33439.6  7424.93
   382.0802  20799.4  20376.3  269.904  525.452  522.651  18524.3  18820.8  38724.2  38748.6  8573.2
   382.3308  23638.2  23158  276.516  539.791  536.099  21233  21573  44250  44276.3  9785.76
   382.5815  26214.5  25682.4  283.362  554.473  549.948  23810.3  24191.5  49383.9  49410.5  10940.2
   382.8321  28072.5  27502.9  290.44  569.223  564.075  25846.5  26260.4  53262.2  53286.9  11854.3
   383.0827  28786  28201.9  297.747  583.753  578.35  26903.1  27333.9  55021.1  55041.8  12333.1
   383.3333  28170.6  27598.7  305.288  597.909  592.713  26709.3  27137  54204.7  54220.2  12256.3
   383.5840  26393  25856.7  313.08  611.77  607.219  25317  25722.4  51029.8  51040.2  11646.9
   383.8346  23871.8  23386  321.148  625.621  622.023  23069.4  23438.9  46255.9  46262.5  10657.6
   384.0852  21066.1  20636.5  329.525  639.813  637.313  20414.5  20741.5  40788.6  40792.9  9487.59
   384.3358  18321.8  17947.2  338.241  654.64  653.249  17727.1  18011  35348.1  35351  8303.54
   384.5865  15832.6  15507.8  347.322  670.296  669.946  15238  15482  30359  30361.2  7208.12
   384.8371  13672.9  13391.3  356.79  686.888  687.473  13050  13258.9  25998.4  26000.3  6247.07
   385.0877  11845.5  11600.4  366.667  704.467  705.876  11183.3  11362.3  22289.7  22291.5  5429.38
   385.3383  10319.4  10104.8  376.976  723.059  725.19  9615.66  9769.57  19179.7  19181.5  4745.2
   385.5890  9052.09  8862.81  387.738  742.682  745.447  8308.29  8441.25  16587.3  16589.1  4177.29
   385.8396  8000.8  7832.43  398.978  763.355  766.681  7219.56  7335.08  14428  14429.8  3707.19
   386.0902  7127.27  6976.23  410.722  785.102  788.933  6311.18  6412.14  12625.5  12627.3  3317.9
   386.3409  6399.16  6262.53  423  807.958  812.247  5550.31  5639.09  11114.6  11116.3  2994.87
   386.5915  5789.95  5665.32  435.841  831.963  836.676  4909.79  4988.3  9841.51  9843.2  2726.03
   386.8421  5278.16  5163.56  449.279  857.167  862.277  4367.53  4437.34  8762.75  8764.4  2501.63
   387.0927  4846.56  4740.37  463.351  883.628  889.116  3905.76  3968.18  7843.26  7844.86  2313.81
   387.3434  4481.33  4382.21  478.097  911.413  917.263  3510.22  3566.3  7054.91  7056.46  2156.27
   387.5940  4171.39  4078.22  493.558  940.594  946.799  3169.44  3220.06  6375.11  6376.61  2023.97
   387.8446  3907.84  3819.66  509.782  971.254  977.808  2874.21  2920.1  5785.65  5787.1  1912.86
   388.0952  3683.49  3599.5  526.818  1003.48  1010.38  2617.07  2658.83  5271.81  5273.21  1819.7
   388.3459  3492.51  3412.03  544.722  1037.38  1044.63  2391.95  2430.11  4821.62  4822.97  1741.86
   388.5965  3330.19  3252.62  563.552  1073.06  1080.66  2193.92  2228.9  4425.3  4426.61  1677.21
   388.8471  3192.65  3117.47  583.372  1110.64  1118.6  2018.93  2051.1  4074.83  4076.09  1624.04
   389.0977  3076.75  3003.51  604.254  1150.25  1158.58  1863.61  1893.3  3763.57  3764.79  1580.93
   389.3484  2979.9  2908.2  626.273  1192.03  1200.74  1725.21  1752.67  3486.02  3487.2  1546.76
   389.5990  2899.97  2829.44  649.513  1236.14  1245.24  1601.4  1626.88  3237.58  3238.72  1520.59
   389.8496  2835.22  2765.54  674.066  1282.76  1292.26  1490.24  1513.93  3014.4  3015.51  1501.68
   390.1003  2784.23  2715.1  700.031  1332.07  1342  1390.09  1412.18  2813.23  2814.3  1489.42
   390.3509  2745.84  2676.97  727.518  1384.28  1394.65  1299.58  1320.21  2631.31  2632.36  1483.34
   390.6015  2719.11  2650.24  756.648  1439.62  1450.45  1217.52  1236.84  2466.31  2467.33  1483.06
   390.8521  2703.3  2634.17  787.553  1498.34  1509.66  1142.91  1161.03  2316.22  2317.21  1488.3
   391.1028  2697.84  2628.21  820.38  1560.72  1572.55  1074.89  1091.92  2179.32  2180.28  1498.85
   391.3534  2702.3  2631.93  855.289  1627.06  1639.44  1012.72  1028.75  2054.13  2055.07  1514.59
   391.6040  2716.37  2645.04  892.461  1697.71  1710.66  955.747  970.858  1939.37  1940.28  1535.46
   391.8546  2739.9  2667.36  932.092  1773.04  1786.6  903.42  917.688  1833.92  1834.81  1561.45
   392.1053  2772.82  2698.83  974.404  1853.46  1867.68  855.252  868.744  1736.82  1737.68  1592.62
   392.3559  2815.17  2739.49  1019.64  1939.46  1954.36  810.82  823.595  1647.21  1648.06  1629.09
   392.6065  2867.13  2789.51  1068.08  2031.53  2047.17  769.751  781.863  1564.36  1565.18  1671.03
   392.8571  2928.95  2849.12  1120.02  2130.28  2146.71  731.718  743.216  1487.6  1488.41  1718.68
   393.1078  3001  2918.69  1175.81  2236.35  2253.62  696.433  707.359  1416.37  1417.16  1772.33
   393.3584  3083.79  2998.7  1235.83  2350.47  2368.65  663.64  674.034  1350.14  1350.91  1832.36
   393.6090  3177.91  3089.74  1300.53  2473.47  2492.62  633.113  643.011  1288.46  1289.22  1899.19
   393.8596  3284.14  3192.53  1370.38  2606.29  2626.49  604.65  614.085  1230.94  1231.68  1973.36
   394.1103  3403.35  3307.95  1445.96  2749.98  2771.32  578.073  587.074  1177.21  1177.93  2055.48
   394.3609  3536.63  3437.03  1527.89  2905.76  2928.33  553.22  561.814  1126.95  1127.65  2146.26
   394.6115  3685.22  3580.98  1616.89  3074.99  3098.9  529.948  538.16  1079.86  1080.56  2246.54
   394.8622  3850.59  3741.24  1713.8  3259.25  3284.61  508.128  515.98  1035.7  1036.38  2357.29
   395.1128  4034.48  3919.47  1819.56  3460.35  3487.3  487.645  495.158  994.226  994.887  2479.63
   395.3634  4238.9  4117.64  1935.27  3680.37  3709.05  468.394  475.586  955.228  955.875  2614.89
   395.6140  4466.2  4338.02  2062.19  3921.71  3952.29  450.28  457.169  918.519  919.15  2764.6
   395.8647  4719.15  4583.3  2201.8  4187.18  4219.84  433.22  439.82  883.925  884.541  2930.54
   396.1153  5000.99  4856.62  2355.81  4480.03  4514.99  417.136  423.462  851.293  851.894  3114.82
   396.3659  5315.54  5161.69  2526.22  4804.08  4841.59  401.959  408.023  820.481  821.065  3319.89
   396.6165  5667.31  5502.88  2715.41  5163.81  5204.15  387.626  393.44  791.361  791.929  3548.66
   396.8672  6061.64  5885.38  2926.14  5564.54  5608.02  374.079  379.654  763.818  764.368  3804.58
   397.1178  6504.9  6315.36  3161.75  6012.56  6059.56  361.268  366.612  737.745  738.277  4091.74
   397.3684  7004.7  6800.21  3426.18  6515.39  6566.33  349.146  354.267  713.047  713.56  4415.03
   397.6190  7570.17  7348.8  3724.17  7082.03  7137.42  337.671  342.576  689.638  690.131  4780.32
   397.8697  8212.35  7971.82  4061.43  7723.36  7783.78  326.806  331.5  667.438  667.909  5194.7
   398.1203  8944.63  8682.28  4444.9  8452.54  8518.68  316.517  321.006  646.378  646.826  5666.76
   398.3709  9783.33  9496  4883.01  9285.64  9358.31  306.776  311.061  626.394  626.815  6207
   398.6216  10748.5  10432.4  5386.12  10242.3  10322.5  297.557  301.64  607.43  607.822  6828.25
   398.8722  11864.7  11515.5  5966.95  11346.8  11435.7  288.84  292.721  589.437  589.796  7546.34
   399.1228  13162.6  12774.8  6641.29  12629.1  12728  280.608  284.284  572.372  572.695  8380.88
   399.3734  14680  14247.1  7428.72  14126.5  14237.1  272.848  276.315  556.201  556.483  9356.19
   399.6241  16464.3  15978.3  8353.63  15885.3  16009.7  265.555  268.805  540.898  541.131  10502.6
   399.8747  18574.2  18025.6  9446.39  17963.2  18103.9  258.728  261.751  526.443  526.621  11857.8
   400.1253  21082.8  20459.8  10744.7  20432.1  20592.2  252.372  255.152  512.828  512.942  13468.8
   400.3759  24080.2  23368.1  12295.1  23380.2  23563.4  246.501  249.019  500.054  500.092  15393.3
   400.6266  27674.7  26856  14153.4  26914.1  27125  241.136  243.367  488.134  488.08  17700.8
   400.8772  31992.9  31046.1  16385.1  31157.7  31401.8  236.305  238.217  477.089  476.928  20472.6
   401.1278  37171.6  36071  19060.5  36245.3  36529.3  232.042  233.597  466.948  466.659  23796.2
   401.3784  43336.9  42053.4  22245  42300.8  42632.3  228.378  229.53  457.738  457.297  27752.9
   401.6291  50558.2  49060.5  25974.3  49392.3  49779.4  225.325  226.025  449.462  448.844  32387
   401.8797  58761.3  57020.2  30210  57446.9  57897.1  222.844  223.045  442.063  441.245  37650.8
   402.1303  67594.4  65591.2  34770.7  66119.5  66637.7  220.797  220.472  435.365  434.332  43318.9
   402.3810  76280.1  74019.3  39255.3  74647.3  75232.3  218.898  218.058  429.008  427.763  48892.3
   402.6316  83571.2  81094  43020.1  81806.3  82447.5  216.692  215.409  422.427  421.004  53570.9
   402.8822  87997.4  85388.8  45306.5  86154.1  86829.4  213.646  212.067  414.965  413.433  56411.5
   403.1328  88460  85837.7  45547.6  86612.6  87291.4  209.36  207.686  406.125  404.579  56709.3
   403.3835  84833.7  82318.9  43678.7  83058.7  83709.7  203.781  202.221  395.836  394.373  54383.8
   403.6341  78042.5  75729.1  40176.6  76399.2  76998  197.231  195.944  384.483  383.18  50027.8
   403.8847  69534.3  67473.2  35788.4  68054.7  68588.1  190.217  189.293  372.683  371.581  44570.2
   404.1353  60640.3  58843.1  31201.1  59331.6  59796.6  183.206  182.666  361  360.108  38865.1
   404.3860  52245.4  50697.1  26871.2  51097.9  51498.4  176.507  176.329  349.806  349.113  33480.1
   404.6366  44783.6  43456.7  23022.9  43779.9  44123  170.269  170.407  339.278  338.761  28693.8
   404.8872  38377.8  37240.8  19719.2  37497.8  37791.7  164.528  164.932  329.458  329.091  24584.9
   405.1378  32981  32004  16936.2  32205.7  32458.1  159.264  159.885  320.313  320.073  21123.3
   405.3885  28474.4  27631.1  14612.5  27787  28004.8  154.429  155.224  311.782  311.648  18232.8
   405.6391  24721.2  23989.2  12677.5  24107.4  24296.3  149.968  150.901  303.795  303.748  15825.6
   405.8897  21591.5  20952.3  11064.2  21039.5  21204.4  145.831  146.873  296.287  296.312  13818.4
   406.1404  18972.7  18411.1  9714.42  18472.8  18617.6  141.974  143.1  289.199  289.285  12139
   406.3910  16770.7  16274.5  8579.71  16315.1  16442.9  138.359  139.55  282.481  282.618  10726.9
   406.6416  14909  14468  7620.52  14491.1  14604.7  134.954  136.195  276.094  276.273  9533.16
   406.8922  13325.8  12931.6  6804.97  12940.3  13041.7  131.735  133.012  270.001  270.216  8518
   407.1429  11971.4  11617.4  6107.45  11613.9  11704.9  128.679  129.983  264.176  264.421  7649.63
   407.3935  10805.9  10486.5  5507.41  10472.9  10554.9  125.769  127.092  258.592  258.863  6902.48
   407.6441  9797.38  9507.83  4988.3  9485.73  9560.04  122.991  124.325  253.23  253.523  6256
   407.8947  8919.92  8656.36  4536.78  8627.12  8694.7  120.332  121.673  248.073  248.385  5693.57
   408.1454  8152.51  7911.7  4142.01  7876.44  7938.14  117.782  119.125  243.106  243.434  5201.74
   408.3960  7478.05  7257.23  3795.17  7216.89  7273.42  115.333  116.674  238.314  238.657  4769.53
   408.6466  6882.52  6679.34  3489.02  6634.73  6686.69  112.976  114.312  233.688  234.043  4387.94
   408.8972  6354.37  6166.83  3217.61  6118.61  6166.53  110.705  112.034  229.217  229.583  4049.56
   409.1479  5884.02  5710.41  2975.99  5659.15  5703.47  108.514  109.835  224.893  225.268  3748.25
   409.3985  5463.5  5302.35  2760.05  5248.53  5289.63  106.398  107.708  220.706  221.09  3478.9
   409.6491  5086.14  4936.16  2566.36  4880.2  4918.42  104.352  105.651  216.65  217.041  3237.23
   409.8997  4746.33  4606.41  2392.01  4548.66  4584.28  102.374  103.66  212.718  213.116  3019.63
   410.1504  4439.31  4308.48  2234.55  4249.25  4282.52  100.458  101.73  208.905  209.308  2823.06
   410.4010  4161.05  4038.46  2091.91  3978.01  4009.15  98.6014  99.8598  205.204  205.612  2644.94
   410.6516  3908.12  3793.02  1962.32  3731.57  3760.78  96.8016  98.0453  201.611  202.023  2483.05
   410.9023  3677.57  3569.28  1844.24  3507.04  3534.49  95.0556  96.2843  198.121  198.537  2335.5
   411.1529  3466.85  3364.8  1736.38  3301.93  3327.78  93.361  94.5742  194.729  195.149  2200.67
   411.4035  3273.77  3177.44  1637.6  3114.09  3138.47  91.7152  92.9129  191.431  191.854  2077.15
   411.6541  3096.44  3005.35  1546.92  2941.66  2964.68  90.1163  91.2983  188.224  188.65  1963.73
   411.9048  2933.2  2846.94  1463.49  2783.01  2804.79  88.5621  89.7284  185.104  185.532  1859.33
   412.1554  2782.61  2700.8  1386.57  2636.73  2657.37  87.0509  88.2014  182.067  182.497  1763.04
   412.4060  2643.4  2565.7  1315.5  2501.58  2521.16  85.5807  86.7155  179.11  179.543  1674.04
   412.6566  2514.45  2440.57  1249.71  2376.47  2395.07  84.1501  85.2692  176.231  176.665  1591.62
   412.9073  2394.79  2324.44  1188.69  2260.44  2278.13  82.7575  83.8609  173.427  173.862  1515.15
   413.1579  2283.55  2216.49  1131.99  2152.63  2169.47  81.4013  82.4893  170.694  171.13  1444.08
   413.4085  2179.96  2115.96  1079.23  2052.3  2068.35  80.0802  81.1529  168.03  168.467  1377.9
   413.6591  2083.33  2022.18  1030.05  1958.76  1974.09  78.793  79.8505  165.432  165.871  1316.19
   413.9098  1993.06  1934.58  984.124  1871.44  1886.08  77.5384  78.5809  162.9  163.339  1258.55
   414.1604  1908.6  1852.62  941.185  1789.79  1803.79  76.3152  77.3428  160.429  160.869  1204.63
   414.4110  1829.47  1775.82  900.979  1713.33  1726.74  75.1223  76.1353  158.019  158.46  1154.12
   414.6617  1755.22  1703.76  863.279  1641.64  1654.48  73.9587  74.9572  155.666  156.108  1106.74
   414.9123  1685.47  1636.06  827.883  1574.33  1586.65  72.8233  73.8076  153.37  153.812  1062.24
   415.1629  1619.85  1572.38  794.608  1511.06  1522.88  71.7152  72.6855  151.128  151.57  1020.38
   415.4135  1558.05  1512.4  763.288  1451.5  1462.85  70.6336  71.5901  148.938  149.381  980.965
   415.6642  1499.77  1455.84  733.775  1395.38  1406.29  69.5775  70.5203  146.8  147.242  943.807
   415.9148  1444.75  1402.45  705.932  1342.43  1352.93  68.546  69.4755  144.71  145.153  908.737
   416.1654  1392.76  1351.99  679.636  1292.43  1302.53  67.5385  68.4548  142.669  143.112  875.601
   416.4160  1343.57  1304.25  654.777  1245.15  1254.89  66.5541  67.4574  140.673  141.116  844.26
   416.6667  1296.99  1259.04  631.25  1200.42  1209.8  65.5922  66.4827  138.723  139.166  814.586
   416.9173  1252.83  1216.18  608.964  1158.04  1167.09  64.6519  65.5299  136.816  137.259  786.463
   417.1679  1210.93  1175.52  587.832  1117.85  1126.59  63.7327  64.5984  134.951  135.393  759.784
   417.4185  1171.14  1136.9  567.777  1079.71  1088.16  62.8339  63.6875  133.127  133.569  734.454
   417.6692  1133.32  1100.19  548.727  1043.49  1051.65  61.9549  62.7965  131.342  131.785  710.381
   417.9198  1097.34  1065.27  530.616  1009.05  1016.94  61.0951  61.925  129.596  130.038  687.484
   418.1704  1063.07  1032.01  513.384  976.281  983.912  60.2539  61.0723  127.888  128.33  665.688
   418.4211  1030.42  1000.32  496.976  945.077  952.464  59.4308  60.2379  126.215  126.657  644.923
   418.6717  999.287  970.101  481.338  915.341  922.495  58.6252  59.4213  124.578  125.02  625.125
   418.9223  969.571  941.259  466.425  886.982  893.914  57.8367  58.6218  122.976  123.417  606.235
   419.1729  941.19  913.713  452.192  859.917  866.637  57.0647  57.8392  121.406  121.847  588.197
   419.4236  914.065  887.385  438.599  834.068  840.585  56.3089  57.0728  119.869  120.31  570.962
   419.6742  888.122  862.205  425.608  809.363  815.688  55.5686  56.3222  118.363  118.803  554.482
   419.9248  863.294  838.106  413.183  785.737  791.876  54.8436  55.587  116.888  117.328  538.714
   420.1754  839.516  815.027  401.294  763.127  769.09  54.1334  54.8668  115.443  115.882  523.617
   420.4261  816.731  792.911  389.909  741.477  747.27  53.4375  54.1611  114.027  114.466  509.153
   420.6767  794.883  771.704  379  720.733  726.364  52.7556  53.4696  112.639  113.077  495.287
   420.9273  773.922  751.358  368.541  700.845  706.32  52.0873  52.7918  111.278  111.716  481.988
   421.1779  753.799  731.826  358.509  681.767  687.093  51.4323  52.1275  109.944  110.381  469.223
   421.4286  734.471  713.065  348.88  663.456  668.638  50.7901  51.4762  108.636  109.073  456.966
   421.6792  715.895  695.034  339.632  645.87  650.915  50.1605  50.8376  107.353  107.79  445.189
   421.9298  698.034  677.697  330.746  628.973  633.886  49.5431  50.2114  106.095  106.531  433.867
   422.1805  680.85  661.017  322.204  612.729  617.515  48.9376  49.5972  104.861  105.296  422.977
   422.4311  664.309  644.961  313.988  597.105  601.768  48.3437  48.9948  103.65  104.085  412.498
   422.6817  648.38  629.499  306.082  582.07  586.615  47.761  48.4038  102.462  102.897  402.408
   422.9323  633.033  614.601  298.469  567.594  572.026  47.1894  47.8239  101.296  101.731  392.689
   423.1830  618.239  600.241  291.137  553.651  557.974  46.6285  47.255  100.152  100.586  383.323
   423.4336  603.971  586.391  284.071  540.214  544.432  46.0781  46.6966  99.0294  99.4626  374.293
   423.6842  590.206  573.029  277.259  527.259  531.376  45.5378  46.1485  97.9271  98.3598  365.583
   423.9348  576.919  560.131  270.688  514.764  518.783  45.0075  45.6105  96.8449  97.2771  357.177
   424.1855  564.089  547.677  264.348  502.707  506.632  44.4869  45.0824  95.7823  96.214  349.062
   424.4361  551.694  535.645  258.227  491.068  494.902  43.9758  44.5638  94.7389  95.17  341.224
   424.6867  539.715  524.016  252.316  479.828  483.574  43.4739  44.0546  93.714  94.1446  333.651
   424.9373  528.134  512.773  246.606  468.968  472.629  42.9809  43.5545  92.7074  93.1375  326.332
   425.1880  516.932  501.899  241.087  458.473  462.052  42.4968  43.0633  91.7186  92.1481  319.254
   425.4386  506.094  491.378  235.75  448.325  451.825  42.0213  42.5808  90.7472  91.1761  312.407
   425.6892  495.603  481.194  230.589  438.511  441.933  41.5541  42.1068  89.7926  90.221  305.781
   425.9398  485.445  471.333  225.595  429.014  432.362  41.0951  41.6411  88.8547  89.2825  299.367
   426.1905  475.605  461.781  220.761  419.822  423.098  40.6441  41.1835  87.9329  88.3602  293.156
   426.4411  466.071  452.525  216.081  410.922  414.129  40.2008  40.7338  87.0268  87.4536  287.139
   426.6917  456.83  443.554  211.548  402.302  405.441  39.7653  40.2918  86.1363  86.5625  281.308
   426.9424  447.87  434.855  207.156  393.949  397.023  39.3371  39.8574  85.2608  85.6864  275.656
   427.1930  439.179  426.418  202.899  385.854  388.865  38.9162  39.4304  84.4  84.8251  270.175
   427.4436  430.746  418.232  198.772  378.005  380.954  38.5024  39.0105  83.5536  83.9781  264.859
   427.6942  422.562  410.287  194.769  370.393  373.283  38.0956  38.5977  82.7213  83.1453  259.7
   427.9449  414.617  402.573  190.885  363.008  365.841  37.6956  38.1918  81.9027  82.3261  254.693
   428.1955  406.901  395.083  187.117  355.842  358.618  37.3022  37.7926  81.0976  81.5205  249.831
   428.4461  399.406  387.806  183.459  348.886  351.607  36.9153  37.4  80.3057  80.728  245.11
   428.6967  392.122  380.735  179.907  342.131  344.8  36.5347  37.0138  79.5266  79.9484  240.523
   428.9474  385.043  373.862  176.457  335.57  338.188  36.1604  36.6339  78.7601  79.1813  236.066
   429.1980  378.161  367.18  173.105  329.196  331.764  35.7921  36.2602  78.006  78.4266  231.734
   429.4486  371.467  360.682  169.848  323.002  325.522  35.4298  35.8925  77.2638  77.6839  227.522
   429.6992  364.956  354.361  166.681  316.981  319.453  35.0732  35.5308  76.5335  76.953  223.425
   429.9499  358.621  348.21  163.603  311.126  313.553  34.7224  35.1747  75.8147  76.2336  219.44
   430.2005  352.454  342.223  160.608  305.432  307.814  34.3771  34.8244  75.1072  75.5256  215.562
   430.4511  346.452  336.395  157.695  299.893  302.231  34.0373  34.4795  74.4107  74.8286  211.788
   430.7018  340.606  330.72  154.861  294.502  296.799  33.7028  34.1401  73.7251  74.1424  208.114
   430.9524  334.913  325.192  152.102  289.256  291.512  33.3736  33.8059  73.05  73.4667  204.536
   431.2030  329.366  319.807  149.416  284.149  286.364  33.0494  33.477  72.3853  72.8015  201.051
   431.4536  323.961  314.559  146.801  279.175  281.352  32.7302  33.1531  71.7308  72.1464  197.656
   431.7043  318.693  309.445  144.253  274.331  276.47  32.416  32.8342  71.0862  71.5013  194.348
   431.9549  313.557  304.458  141.772  269.611  271.713  32.1066  32.5202  70.4514  70.8659  191.124
   432.2055  308.549  299.596  139.353  265.012  267.079  31.8018  32.2109  69.8261  70.2401  187.98
   432.4561  303.664  294.853  136.996  260.53  262.561  31.5017  31.9063  69.2102  69.6236  184.915
   432.7068  298.899  290.226  134.699  256.161  258.158  31.2061  31.6063  68.6034  69.0163  181.925
   432.9574  294.25  285.712  132.458  251.9  253.864  30.9149  31.3108  68.0056  68.4179  179.008
   433.2080  289.712  281.306  130.273  247.745  249.676  30.628  31.0197  67.4166  67.8284  176.163
   433.4586  285.282  277.005  128.142  243.691  245.591  30.3454  30.7328  66.8363  67.2475  173.385
   433.7093  280.957  272.806  126.062  239.736  241.605  30.0669  30.4503  66.2644  66.675  170.674
   433.9599  276.734  268.706  124.032  235.877  237.715  29.7925  30.1718  65.7007  66.1109  168.028
   434.2105  272.609  264.7  122.051  232.11  233.919  29.5222  29.8974  65.1452  65.5548  165.443
   434.4612  268.579  260.787  120.118  228.432  230.213  29.2557  29.627  64.5977  65.0068  162.919
   434.7118  264.642  256.964  118.229  224.841  226.594  28.9931  29.3605  64.058  64.4665  160.453
   434.9624  260.793  253.228  116.385  221.334  223.059  28.7343  29.0978  63.526  63.9339  158.043
   435.2130  257.032  249.575  114.584  217.908  219.607  28.4792  28.8389  63.0014  63.4089  155.689
   435.4637  253.355  246.005  112.824  214.562  216.234  28.2277  28.5837  62.4843  62.8912  153.387
   435.7143  249.759  242.513  111.104  211.291  212.938  27.9797  28.332  61.9744  62.3807  151.137
   435.9649  246.242  239.099  109.423  208.095  209.717  27.7353  28.0839  61.4715  61.8773  148.938
   436.2155  242.803  235.759  107.78  204.971  206.568  27.4942  27.8393  60.9757  61.3809  146.786
   436.4662  239.438  232.491  106.174  201.916  203.489  27.2566  27.5981  60.4866  60.8914  144.682
   436.7168  236.145  229.294  104.603  198.929  200.479  27.0222  27.3603  60.0043  60.4085  142.624
   436.9674  232.923  226.165  103.067  196.008  197.536  26.7911  27.1257  59.5286  59.9322  140.61
   437.2180  229.769  223.103  101.565  193.151  194.656  26.5631  26.8944  59.0593  59.4624  138.639
   437.4687  226.681  220.105  100.095  190.356  191.839  26.3383  26.6662  58.5963  58.999  136.71
   437.7193  223.658  217.169  98.6568  187.621  189.082  26.1165  26.4411  58.1396  58.5417  134.822
   437.9699  220.697  214.295  97.2493  184.944  186.385  25.8978  26.2191  57.689  58.0906  132.973
   438.2206  217.798  211.479  95.8718  182.325  183.745  25.682  26.0001  57.2444  57.6454  131.163
   438.4712  214.958  208.721  94.5232  179.76  181.16  25.469  25.784  56.8057  57.2062  129.39
   438.7218  212.175  206.019  93.2029  177.249  178.63  25.259  25.5708  56.3727  56.7727  127.653
   438.9724  209.449  203.372  91.9101  174.791  176.152  25.0517  25.3604  55.9455  56.345  125.952
   439.2231  206.777  200.778  90.6439  172.383  173.725  24.8472  25.1529  55.5238  55.9228  124.286
   439.4737  204.159  198.235  89.4037  170.024  171.349  24.6453  24.948  55.1076  55.5061  122.653
   439.7243  201.592  195.742  88.1888  167.714  169.02  24.4461  24.7459  54.6968  55.0948  121.052
   439.9749  199.075  193.298  86.9984  165.45  166.739  24.2495  24.5464  54.2913  54.6888  119.483
   440.2256  196.607  190.902  85.832  163.232  164.503  24.0555  24.3494  53.891  54.2879  117.945
   440.4762  194.188  188.552  84.6889  161.058  162.312  23.864  24.1551  53.4958  53.8922  116.437
   440.7268  191.814  186.247  83.5684  158.927  160.165  23.6749  23.9632  53.1057  53.5015  114.959
   440.9774  189.486  183.987  82.47  156.839  158.06  23.4883  23.7738  52.7204  53.1158  113.509
   441.2281  187.202  181.769  81.3932  154.791  155.996  23.3041  23.5868  52.34  52.7349  112.086
   441.4787  184.961  179.593  80.3372  152.783  153.972  23.1221  23.4022  51.9644  52.3588  110.691
   441.7293  182.762  177.457  79.3017  150.813  151.988  22.9425  23.2199  51.5935  51.9873  109.322
   441.9799  180.604  175.362  78.286  148.882  150.041  22.7652  23.0399  51.2271  51.6205  107.979
   442.2306  178.486  173.304  77.2898  146.987  148.132  22.5901  22.8622  50.8653  51.2582  106.661
   442.4812  176.406  171.285  76.3124  145.129  146.259  22.4172  22.6867  50.508  50.9003  105.368
   442.7318  174.365  169.303  75.3534  143.305  144.421  22.2464  22.5134  50.155  50.5468  104.098
   442.9825  172.361  167.356  74.4124  141.515  142.617  22.0777  22.3422  49.8063  50.1976  102.852
   443.2331  170.392  165.445  73.4889  139.759  140.847  21.9111  22.1732  49.4619  49.8527  101.628
   443.4837  168.459  163.567  72.5824  138.035  139.11  21.7466  22.0062  49.1216  49.5119  100.426
   443.7343  166.56  161.723  71.6926  136.343  137.405  21.584  21.8412  48.7854  49.1752  99.2463
   443.9850  164.695  159.912  70.8191  134.682  135.731  21.4235  21.6783  48.4533  48.8426  98.0874
   444.2356  162.862  158.132  69.9615  133.051  134.087  21.2649  21.5173  48.1251  48.5139  96.9491
   444.4862  161.062  156.384  69.1193  131.45  132.473  21.1082  21.3583  47.8008  48.1891  95.8309
   444.7368  159.293  154.666  68.2922  129.877  130.888  20.9534  21.2012  47.4803  47.8682  94.7323
   444.9875  157.554  152.977  67.4799  128.332  129.331  20.8004  21.046  47.1636  47.551  93.6529
   445.2381  155.845  151.317  66.6819  126.815  127.801  20.6493  20.8926  46.8506  47.2375  92.5923
   445.4887  154.165  149.686  65.8981  125.324  126.299  20.4999  20.741  46.5413  46.9277  91.5499
   445.7393  152.514  148.082  65.128  123.859  124.823  20.3523  20.5913  46.2356  46.6215  90.5253
   445.9900  150.89  146.506  64.3712  122.42  123.373  20.2065  20.4432  45.9334  46.3188  89.5183
   446.2406  149.294  144.955  63.6276  121.006  121.948  20.0624  20.297  45.6347  46.0196  88.5282
   446.4912  147.724  143.431  62.8968  119.616  120.547  19.9199  20.1524  45.3394  45.7239  87.5549
   446.7419  146.18  141.931  62.1785  118.25  119.171  19.7791  20.0095  45.0475  45.4315  86.5978
   446.9925  144.662  140.457  61.4725  116.908  117.817  19.6399  19.8683  44.7589  45.1424  85.6567
   447.2431  143.168  139.006  60.7784  115.588  116.487  19.5024  19.7287  44.4736  44.8566  84.7312
   447.4937  141.699  137.579  60.096  114.29  115.179  19.3664  19.5907  44.1915  44.574  83.8209
   447.7444  140.253  136.175  59.425  113.014  113.893  19.232  19.4543  43.9126  44.2946  82.9255
   447.9950  138.831  134.794  58.7651  111.759  112.629  19.0991  19.3194  43.6367  44.0183  82.0447
   448.2456  137.431  133.434  58.1162  110.525  111.385  18.9677  19.1861  43.364  43.7451  81.1781
   448.4962  136.054  132.097  57.478  109.311  110.162  18.8377  19.0542  43.0943  43.4749  80.3255
   448.7469  134.698  130.78  56.8503  108.118  108.959  18.7093  18.9239  42.8276  43.2077  79.4866
   448.9975  133.364  129.484  56.2327  106.943  107.775  18.5823  18.795  42.5638  42.9434  78.661
   449.2481  132.05  128.209  55.6252  105.788  106.611  18.4567  18.6675  42.3029  42.6821  77.8484
   449.4987  130.757  126.953  55.0274  104.651  105.465  18.3325  18.5415  42.0448  42.4235  77.0487
   449.7494  129.484  125.717  54.4393  103.532  104.338  18.2097  18.4169  41.7895  42.1678  76.2615
   450.0000  128.231  124.499  53.8605  102.432  103.229  18.0882  18.2936  41.537  41.9149  75.4865