File: examples/mos2-example1/ref/raman_spectra1.dat
#Raman spectra
#Laser energy   1.95 eV
#Raman shift (cm-1), Raman Spectra (XX,YY,ZZ,s+s+,s-s-,XY,YX,s+s-,s-s+,nonpol)
   350.0000  83.0077  83.2496  56.484  64.6446  64.6413  14.3257  14.6011  32.8698  33.0284  69.184
   350.2506  83.8386  84.0842  57.0214  65.2597  65.2564  14.5448  14.8243  33.3086  33.4671  69.8059
   350.5013  84.6834  84.9327  57.5666  65.8837  65.8803  14.7689  15.0528  33.7578  33.916  70.4384
   350.7519  85.5425  85.7956  58.1196  66.5167  66.5132  14.9983  15.2866  34.2175  34.3756  71.0818
   351.0025  86.4162  86.6731  58.6806  67.1588  67.1552  15.2331  15.5258  34.6881  34.846  71.7362
   351.2531  87.3048  87.5656  59.2498  67.8103  67.8066  15.4734  15.7707  35.17  35.3277  72.4019
   351.5038  88.2088  88.4735  59.8273  68.4713  68.4675  15.7194  16.0215  35.6635  35.821  73.0791
   351.7544  89.1284  89.3971  60.4133  69.142  69.1381  15.9714  16.2783  36.1689  36.3262  73.7682
   352.0050  90.0641  90.3369  61.0079  69.8226  69.8186  16.2294  16.5413  36.6867  36.8438  74.4693
   352.2556  91.0163  91.2932  61.6113  70.5133  70.5092  16.4938  16.8107  37.2172  37.3742  75.1827
   352.5063  91.9853  92.2664  62.2238  71.2143  71.2101  16.7646  17.0867  37.761  37.9178  75.9087
   352.7569  92.9717  93.257  62.8454  71.9258  71.9215  17.0422  17.3696  38.3183  38.4749  76.6475
   353.0075  93.9757  94.2654  63.4764  72.648  72.6436  17.3267  17.6596  38.8897  39.0461  77.3995
   353.2581  94.998  95.292  64.1169  73.3811  73.3767  17.6184  17.9569  39.4756  39.6319  78.1649
   353.5088  96.0389  96.3373  64.7671  74.1254  74.1208  17.9176  18.2617  40.0765  40.2327  78.9441
   353.7594  97.0989  97.4018  65.4273  74.8811  74.8764  18.2244  18.5744  40.693  40.849  79.7373
   354.0100  98.1785  98.4861  66.0977  75.6484  75.6435  18.5391  18.8952  41.3256  41.4814  80.545
   354.2607  99.2783  99.5905  66.7784  76.4275  76.4226  18.8621  19.2243  41.9747  42.1304  81.3673
   354.5113  100.399  100.716  67.4696  77.2187  77.2137  19.1935  19.5621  42.6411  42.7966  82.2048
   354.7619  101.54  101.862  68.1717  78.0223  78.0171  19.5338  19.9089  43.3253  43.4806  83.0577
   355.0125  102.704  103.031  68.8847  78.8385  78.8331  19.8832  20.265  44.0279  44.1831  83.9264
   355.2632  103.89  104.221  69.609  79.6676  79.6621  20.242  20.6307  44.7496  44.9047  84.8113
   355.5138  105.099  105.435  70.3448  80.5097  80.5041  20.6106  21.0063  45.4912  45.6461  85.7128
   355.7644  106.331  106.673  71.0923  81.3654  81.3596  20.9894  21.3924  46.2532  46.408  86.6313
   356.0150  107.588  107.935  71.8518  82.2347  82.2287  21.3787  21.7891  47.0366  47.1912  87.5673
   356.2657  108.87  109.222  72.6235  83.118  83.1119  21.7789  22.197  47.842  47.9965  88.5212
   356.5163  110.178  110.535  73.4077  84.0157  84.0094  22.1905  22.6164  48.6703  48.8247  89.4933
   356.7669  111.512  111.875  74.2046  84.9279  84.9215  22.6138  23.0479  49.5224  49.6767  90.4843
   357.0175  112.873  113.242  75.0146  85.8551  85.8485  23.0493  23.4917  50.3992  50.5534  91.4946
   357.2682  114.263  114.637  75.838  86.7976  86.7907  23.4975  23.9485  51.3016  51.4557  92.5248
   357.5188  115.681  116.061  76.6749  87.7556  87.7486  23.9589  24.4188  52.2306  52.3846  93.5752
   357.7694  117.129  117.515  77.5258  88.7296  88.7224  24.434  24.903  53.1873  53.3413  94.6466
   358.0201  118.608  118.999  78.3909  89.7199  89.7125  24.9234  25.4017  54.1729  54.3267  95.7394
   358.2707  120.118  120.515  79.2706  90.7269  90.7192  25.4276  25.9155  55.1884  55.3421  96.8543
   358.5213  121.661  122.064  80.1652  91.7509  91.743  25.9472  26.4451  56.235  56.3887  97.9918
   358.7719  123.237  123.647  81.075  92.7923  92.7842  26.4829  26.9911  57.3141  57.4677  99.1527
   359.0226  124.848  125.265  82.0003  93.8516  93.8432  27.0354  27.5541  58.427  58.5805  100.337
   359.2732  126.495  126.918  82.9416  94.9291  94.9205  27.6052  28.1349  59.5751  59.7285  101.547
   359.5238  128.179  128.608  83.8992  96.0253  96.0164  28.1933  28.7342  60.7599  60.9133  102.782
   359.7744  129.901  130.337  84.8734  97.1405  97.1314  28.8003  29.3528  61.9829  62.1363  104.043
   360.0251  131.662  132.105  85.8647  98.2753  98.2659  29.4271  29.9916  63.2459  63.3992  105.33
   360.2757  133.464  133.914  86.8735  99.4301  99.4204  30.0746  30.6515  64.5506  64.7039  106.646
   360.5263  135.309  135.766  87.9002  100.605  100.595  30.7436  31.3333  65.8987  66.052  107.99
   360.7769  137.197  137.661  88.9451  101.802  101.791  31.4352  32.0381  67.2923  67.4456  109.364
   361.0276  139.13  139.601  90.0088  103.019  103.009  32.1503  32.767  68.7335  68.8868  110.767
   361.2782  141.109  141.588  91.0916  104.259  104.248  32.8901  33.5209  70.2243  70.3776  112.203
   361.5288  143.137  143.624  92.1942  105.521  105.51  33.6556  34.3011  71.7671  71.9204  113.67
   361.7794  145.216  145.71  93.3168  106.806  106.794  34.4481  35.1088  73.3642  73.5176  115.171
   362.0301  147.346  147.848  94.4601  108.115  108.103  35.2689  35.9453  75.0184  75.1719  116.706
   362.2807  149.53  150.04  95.6245  109.448  109.435  36.1194  36.8121  76.7323  76.8858  118.277
   362.5313  151.77  152.289  96.8105  110.806  110.793  37.0009  37.7105  78.5088  78.6624  119.884
   362.7820  154.068  154.595  98.0187  112.189  112.176  37.915  38.6421  80.351  80.5046  121.53
   363.0326  156.427  156.962  99.2497  113.598  113.585  38.8634  39.6086  82.2621  82.4159  123.215
   363.2832  158.848  159.392  100.504  115.034  115.02  39.8476  40.6117  84.2456  84.3995  124.941
   363.5338  161.334  161.888  101.782  116.498  116.483  40.8697  41.6534  86.3051  86.4592  126.709
   363.7845  163.889  164.451  103.085  117.989  117.974  41.9315  42.7355  88.4447  88.599  128.521
   364.0351  166.514  167.085  104.413  119.509  119.494  43.0352  43.8603  90.6685  90.8229  130.378
   364.2857  169.212  169.794  105.767  121.059  121.043  44.1829  45.0299  92.9809  93.1355  132.282
   364.5363  171.988  172.579  107.147  122.639  122.623  45.377  46.2469  95.3867  95.5415  134.234
   364.7870  174.843  175.444  108.554  124.251  124.233  46.62  47.5138  97.8909  98.046  136.238
   365.0376  177.782  178.393  109.989  125.894  125.876  47.9147  48.8332  100.499  100.654  138.294
   365.2882  180.809  181.43  111.453  127.57  127.551  49.2639  50.2083  103.217  103.372  140.405
   365.5388  183.926  184.558  112.947  129.28  129.26  50.6708  51.6421  106.05  106.206  142.573
   365.7895  187.139  187.782  114.47  131.024  131.004  52.1386  53.1381  109.007  109.163  144.801
   366.0401  190.452  191.106  116.025  132.804  132.783  53.671  54.6998  112.092  112.249  147.09
   366.2907  193.87  194.535  117.611  134.621  134.599  55.2717  56.3311  115.316  115.473  149.443
   366.5414  197.397  198.074  119.23  136.475  136.452  56.9449  58.0364  118.684  118.842  151.864
   366.7920  201.04  201.729  120.883  138.367  138.344  58.6949  59.8199  122.207  122.366  154.355
   367.0426  204.804  205.505  122.57  140.299  140.275  60.5266  61.6867  125.894  126.053  156.919
   367.2932  208.694  209.408  124.293  142.272  142.247  62.4451  63.642  129.756  129.915  159.56
   367.5439  212.719  213.446  126.053  144.287  144.261  64.456  65.6913  133.802  133.962  162.281
   367.7945  216.885  217.624  127.85  146.345  146.317  66.5652  67.8409  138.046  138.207  165.087
   368.0451  221.199  221.952  129.686  148.447  148.418  68.7792  70.0974  142.5  142.662  167.981
   368.2957  225.67  226.437  131.561  150.595  150.565  71.1052  72.4679  147.178  147.341  170.967
   368.5464  230.306  231.087  133.478  152.79  152.759  73.5506  74.9601  152.096  152.26  174.051
   368.7970  235.118  235.914  135.436  155.033  155  76.1239  77.5827  157.27  157.435  177.237
   369.0476  240.115  240.926  137.439  157.326  157.292  78.834  80.3447  162.719  162.884  180.53
   369.2982  245.309  246.135  139.485  159.67  159.634  81.6907  83.2561  168.46  168.627  183.938
   369.5489  250.712  251.554  141.578  162.067  162.03  84.7048  86.328  174.517  174.685  187.465
   369.7995  256.337  257.194  143.718  164.518  164.479  87.8881  89.5722  180.912  181.081  191.12
   370.0501  262.197  263.072  145.907  167.025  166.985  91.2532  93.0018  187.672  187.842  194.908
   370.3008  268.309  269.201  148.147  169.59  169.548  94.8144  96.6312  194.823  194.995  198.839
   370.5514  274.69  275.599  150.438  172.215  172.171  98.5869  100.476  202.396  202.57  202.92
   370.8020  281.358  282.285  152.783  174.901  174.855  102.588  104.554  210.426  210.602  207.162
   371.0526  288.332  289.279  155.183  177.651  177.602  106.836  108.883  218.95  219.128  211.575
   371.3033  295.636  296.602  157.64  180.465  180.414  111.352  113.485  228.008  228.188  216.17
   371.5539  303.294  304.279  160.156  183.348  183.294  116.158  118.383  237.645  237.828  220.959
   371.8045  311.332  312.338  162.732  186.3  186.243  121.28  123.604  247.913  248.098  225.956
   372.0551  319.78  320.808  165.372  189.323  189.264  126.746  129.174  258.867  259.055  231.176
   372.3058  328.671  329.721  168.075  192.421  192.358  132.587  135.127  270.567  270.759  236.635
   372.5564  338.041  339.113  170.846  195.596  195.53  138.838  141.498  283.085  283.28  242.352
   372.8070  347.93  349.026  173.686  198.85  198.78  145.538  148.327  296.496  296.695  248.347
   373.0576  358.384  359.505  176.596  202.186  202.112  152.731  155.657  310.888  311.09  254.642
   373.3083  369.452  370.598  179.581  205.607  205.529  160.465  163.54  326.356  326.563  261.262
   373.5589  381.191  382.364  182.642  209.116  209.033  168.796  172.03  343.01  343.223  268.236
   373.8095  393.664  394.864  185.782  212.715  212.627  177.787  181.193  360.974  361.192  275.594
   374.0602  406.942  408.171  189.003  216.408  216.314  187.507  191.099  380.386  380.61  283.373
   374.3108  421.105  422.364  192.309  220.198  220.099  198.037  201.831  401.404  401.636  291.611
   374.5614  436.245  437.535  195.702  224.089  223.983  209.468  213.481  424.209  424.448  300.354
   374.8120  452.465  453.788  199.186  228.085  227.972  221.906  226.157  449.006  449.254  309.654
   375.0627  469.884  471.242  202.764  232.188  232.067  235.469  239.98  476.031  476.288  319.568
   375.3133  488.637  490.031  206.438  236.404  236.274  250.296  255.091  505.554  505.822  330.165
   375.5639  508.881  510.312  210.214  240.735  240.597  266.545  271.651  537.888  538.169  341.52
   375.8145  530.794  532.265  214.094  245.188  245.039  284.403  289.851  573.396  573.69  353.722
   376.0652  554.586  556.099  218.082  249.766  249.605  304.083  309.908  612.498  612.808  366.875
   376.3158  580.499  582.057  222.182  254.473  254.301  325.837  332.08  655.686  656.014  381.099
   376.5664  608.818  610.423  226.4  259.316  259.13  349.962  356.666  703.537  703.886  396.534
   376.8170  639.875  641.531  230.738  264.3  264.098  376.805  384.023  756.732  757.104  413.344
   377.0677  674.064  675.774  235.202  269.429  269.21  406.779  414.571  816.076  816.473  431.726
   377.3183  711.852  713.62  239.797  274.711  274.472  440.376  448.813  882.525  882.953  451.91
   377.5689  753.795  755.626  244.528  280.152  279.891  478.187  487.348  957.224  957.689  474.173
   377.8195  800.56  802.459  249.4  285.757  285.471  520.92  530.899  1041.55  1042.06  498.847
   378.0702  852.951  854.924  254.419  291.535  291.221  569.433  580.341  1137.17  1137.72  526.333
   378.3208  911.942  913.996  259.591  297.493  297.147  624.77  636.739  1246.1  1246.71  557.117
   378.5714  978.72  980.862  264.923  303.639  303.255  688.209  701.394  1370.81  1371.48  591.795
   378.8221  1054.74  1056.98  270.42  309.982  309.555  761.321  775.906  1514.32  1515.08  631.095
   379.0727  1141.79  1144.14  276.091  316.531  316.055  846.046  862.255  1680.39  1681.25  675.918
   379.3233  1242.08  1244.55  281.941  323.297  322.762  944.793  962.893  1873.64  1874.62  727.381
   379.5739  1358.38  1360.98  287.98  330.289  329.687  1060.56  1080.87  2099.85  2100.96  786.869
   379.8246  1494.09  1496.86  294.216  337.522  336.839  1197.07  1220.01  2366.19  2367.48  856.111
   380.0752  1653.49  1656.44  300.656  345.007  344.228  1358.98  1385.02  2681.6  2683.09  937.251
   380.3258  1841.87  1845.02  307.311  352.759  351.867  1552.02  1581.75  3057.15  3058.9  1032.94
   380.5764  2065.72  2069.11  314.189  360.796  359.767  1783.16  1817.33  3506.35  3508.41  1146.4
   380.8271  2332.84  2336.51  321.303  369.133  367.94  2060.65  2100.13  4045.31  4047.75  1281.42
   381.0777  2652.28  2656.27  328.661  377.791  376.401  2393.67  2439.53  4692.33  4695.23  1442.26
   381.3283  3033.66  3038.04  336.277  386.789  385.165  2791.29  2844.77  5466.19  5469.61  1633.1
   381.5789  3485.59  3490.43  344.162  396.147  394.245  3260  3322.45  6382.04  6386.03  1856.93
   381.8296  4012.07  4017.43  352.329  405.877  403.656  3798.76  3871.54  7442.86  7447.41  2113.29
   382.0802  4605.99  4611.94  360.791  415.983  413.41  4390.93  4475.06  8624.78  8629.74  2394.54
   382.3308  5239.35  5245.92  369.56  426.449  423.517  4993.92  5089.59  9856.89  9861.92  2681.08
   382.5815  5853.18  5860.38  378.649  437.237  433.983  5532.55  5638.54  11004.5  11009  2938.33
   382.8321  6356.35  6364.05  388.07  448.288  444.807  5908.19  6021.36  11876.8  11880.1  3120.9
   383.0827  6646.21  6654.24  397.834  459.554  455.994  6032.52  6148.07  12282  12283.4  3188.17
   383.3333  6652.46  6660.57  407.957  471.028  467.559  5872.58  5985.05  12116.3  12115.7  3124.97
   383.5840  6376.56  6384.47  418.46  482.762  479.529  5470.43  5575.19  11423.3  11421  2950.69
   383.8346  5890.82  5898.35  429.366  494.848  491.943  4918.3  5012.47  10368.2  10365  2707.8
   384.0852  5298.17  5305.21  440.701  507.385  504.842  4313.19  4395.77  9151.83  9148.28  2440.97
   384.3358  4688.85  4695.39  452.492  520.457  518.265  3726.13  3797.47  7936.27  7932.85  2182.92
   384.5865  4120.66  4126.73  464.765  534.12  532.248  3195.85  3257.04  6818.48  6815.43  1951.5
   384.8371  3620.69  3626.37  477.549  548.419  546.823  2736.43  2788.82  5839.84  5837.23  1753.21
   385.0877  3195.57  3200.92  490.871  563.383  562.022  2347.54  2392.49  5006.66  5004.47  1587.94
   385.3383  2841.09  2846.18  504.762  579.044  577.88  2022.18  2060.89  4307.61  4305.81  1452.5
   385.5890  2548.6  2553.5  519.253  595.431  594.431  1751.13  1784.66  3724.75  3723.28  1342.67
   385.8396  2308.53  2313.28  534.379  612.577  611.714  1525.31  1554.52  3239.28  3238.07  1254.31
   386.0902  2111.94  2116.59  550.176  630.518  629.769  1336.63  1362.22  2834.03  2833.05  1183.73
   386.3409  1951.12  1955.7  566.684  649.294  648.642  1178.27  1200.83  2494.39  2493.59  1127.84
   386.5915  1819.68  1824.23  583.946  668.951  668.381  1044.66  1064.66  2208.27  2207.62  1084.12
   386.8421  1712.44  1716.98  602.008  689.538  689.037  931.269  949.101  1965.87  1965.34  1050.53
   387.0927  1625.23  1629.78  620.92  711.108  710.668  834.476  850.455  1759.3  1758.86  1025.45
   387.3434  1554.72  1559.32  640.735  733.722  733.334  751.366  765.753  1582.23  1581.87  1007.6
   387.5940  1498.27  1502.91  661.511  757.445  757.101  679.596  692.609  1429.57  1429.27  995.962
   387.8446  1453.75  1458.46  683.311  782.345  782.041  617.278  629.098  1297.22  1296.98  989.726
   388.0952  1419.47  1424.27  706.203  808.502  808.232  562.884  573.662  1181.87  1181.67  988.263
   388.3459  1394.07  1398.97  730.261  835.997  835.758  515.168  525.033  1080.83  1080.67  991.073
   388.5965  1376.49  1381.5  755.565  864.921  864.71  473.113  482.172  991.89  991.76  997.773
   388.8471  1365.86  1370.99  782.202  895.375  895.188  435.882  444.228  913.251  913.147  1008.07
   389.0977  1361.49  1366.76  810.266  927.465  927.301  402.782  410.494  843.422  843.339  1021.73
   389.3484  1362.84  1368.27  839.862  961.309  961.166  373.237  380.384  781.162  781.098  1038.61
   389.5990  1369.51  1375.1  871.101  997.037  996.913  346.767  353.406  725.44  725.392  1058.59
   389.8496  1381.16  1386.93  904.108  1034.79  1034.68  322.967  329.151  675.389  675.353  1081.63
   390.1003  1397.58  1403.54  939.017  1074.72  1074.63  301.497  307.269  630.279  630.254  1107.7
   390.3509  1418.59  1424.76  975.976  1117  1116.92  282.066  287.466  589.49  589.474  1136.81
   390.6015  1444.11  1450.51  1015.15  1161.81  1161.75  264.429  269.492  552.497  552.489  1169.04
   390.8521  1474.12  1480.75  1056.71  1209.36  1209.31  248.375  253.13  518.85  518.848  1204.45
   391.1028  1508.62  1515.51  1100.87  1259.88  1259.84  233.722  238.196  488.162  488.165  1243.18
   391.3534  1547.69  1554.86  1147.83  1313.6  1313.58  220.314  224.531  460.101  460.109  1285.37
   391.6040  1591.47  1598.93  1197.84  1370.82  1370.82  208.015  211.997  434.38  434.39  1331.22
   391.8546  1640.12  1647.89  1251.18  1431.84  1431.84  196.709  200.474  410.747  410.76  1380.94
   392.1053  1693.87  1701.98  1308.12  1497  1497.01  186.291  189.857  388.986  389.001  1434.79
   392.3559  1752.99  1761.47  1369.02  1566.67  1566.7  176.673  180.054  368.906  368.922  1493.08
   392.6065  1817.84  1826.7  1434.23  1641.28  1641.32  167.776  170.986  350.34  350.356  1556.15
   392.8571  1888.79  1898.08  1504.17  1721.31  1721.36  159.529  162.582  333.142  333.157  1624.39
   393.1078  1966.31  1976.05  1579.31  1807.29  1807.35  151.873  154.778  317.18  317.195  1698.25
   393.3584  2050.94  2061.17  1660.17  1899.81  1899.88  144.751  147.52  302.341  302.354  1778.25
   393.6090  2143.3  2154.06  1747.34  1999.55  1999.63  138.117  140.759  288.523  288.534  1864.97
   393.8596  2244.1  2255.44  1841.48  2107.27  2107.37  131.927  134.45  275.635  275.643  1959.08
   394.1103  2354.17  2366.12  1943.35  2223.84  2223.95  126.143  128.555  263.597  263.602  2061.35
   394.3609  2474.44  2487.06  2053.82  2350.24  2350.36  120.73  123.038  252.335  252.336  2172.63
   394.6115  2606  2619.36  2173.85  2487.59  2487.73  115.658  117.869  241.786  241.782  2293.92
   394.8622  2750.1  2764.26  2304.58  2637.17  2637.33  110.9  113.019  231.891  231.882  2426.38
   395.1128  2908.19  2923.22  2447.29  2800.47  2800.64  106.429  108.462  222.598  222.583  2571.31
   395.3634  3081.94  3097.92  2603.47  2979.19  2979.38  102.225  104.177  213.859  213.838  2730.24
   395.6140  3273.29  3290.32  2774.85  3175.28  3175.49  98.2654  100.141  205.633  205.604  2904.92
   395.8647  3484.5  3502.68  2963.41  3391.05  3391.28  94.5336  96.3375  197.881  197.843  3097.42
   396.1153  3718.21  3737.67  3171.49  3629.15  3629.4  91.0124  92.7483  190.567  190.519  3310.12
   396.3659  3977.53  3998.4  3401.83  3892.72  3892.99  87.6868  89.3585  183.66  183.602  3545.83
   396.6165  4266.11  4288.54  3657.63  4185.43  4185.73  84.5431  86.1539  177.131  177.061  3807.85
   396.8672  4588.26  4612.44  3942.69  4511.62  4511.95  81.5689  83.122  170.954  170.871  4100.1
   397.1178  4949.14  4975.27  4261.54  4876.47  4876.83  78.7529  80.2513  165.106  165.007  4427.21
   397.3684  5354.87  5383.19  4619.55  5286.14  5286.53  76.0849  77.5312  159.565  159.448  4794.73
   397.6190  5812.83  5843.63  5023.2  5748.02  5748.46  73.5555  74.9524  154.31  154.174  5209.32
   397.8697  6331.91  6365.51  5480.28  6271.06  6271.54  71.1564  72.5062  149.325  149.167  5679.02
   398.1203  6922.91  6959.7  6000.27  6866.07  6866.6  68.88  70.1848  144.593  144.409  6213.56
   398.3709  7598.99  7639.42  6594.71  7546.27  7546.86  66.7194  67.9814  140.099  139.886  6824.83
   398.6216  8376.29  8420.92  7277.74  8327.85  8328.5  64.6688  65.8897  135.831  135.584  7527.41
   398.8722  9274.72  9324.18  8066.8  9230.77  9231.5  62.7227  63.9044  131.777  131.491  8339.26
   399.1228  10318.9  10374  8983.5  10279.7  10280.5  60.8768  62.0208  127.927  127.596  9282.61
   399.3734  11539.5  11601.1  10054.7  11505.4  11506.4  59.1272  60.235  124.272  123.887  10385.1
   399.6241  12974.5  13043.9  11313.7  12946.1  12947.2  57.4712  58.5441  120.805  120.358  11681.2
   399.8747  14671.6  14750.1  12802.2  14649.4  14650.6  55.9067  56.9459  117.521  117  13213.6
   400.1253  16689.6  16779  14571.9  16674.4  16675.8  54.4329  55.4393  114.416  113.806  15035.7
   400.3759  19100.9  19203.2  16686.1  19093.7  19095.3  53.0498  54.0244  111.488  110.773  17212.8
   400.6266  21992.7  22110.6  19221.3  21994.7  21996.5  51.7589  52.7023  108.737  107.896  19823.4
   400.8772  25465.7  25602.3  22265.7  25478.3  25480.4  50.5623  51.4751  106.166  105.174  22958.6
   401.1278  29627.8  29786.7  25913.7  29652.7  29655.2  49.4631  50.3456  103.778  102.603  26715.7
   401.3784  34575.3  34760.8  30250  34614.7  34617.5  48.4639  49.3163  101.574  100.184  31181.6
   401.6291  40354  40570.6  35314.5  40409.9  40413.2  47.5645  48.3868  99.5542  97.9117  36397.6
   401.8797  46886.1  47137.8  41039.1  46960.4  46964.3  46.7576  47.5499  97.7049  95.7772  42293.7
   402.1303  53861.6  54150.8  47152.1  53955.5  53960  46.0226  46.7854  95.9923  93.76  48589.8
   402.3810  60624.9  60950.5  53079.3  60737.8  60742.9  45.3191  46.0533  94.3505  91.8229  54694.5
   402.6316  66159  66514.4  57929.3  66287.6  66293.1  44.5854  45.2932  92.6807  89.9115  59689.7
   402.8822  69313.7  69686  60694.4  69451.6  69457.4  43.7524  44.4372  90.8719  87.9649  62537.4
   403.1328  69294  69666.2  60678  69432.9  69438.7  42.7718  43.4379  88.8462  85.94  62520.1
   403.3835  66104.9  66459.9  57884.5  66236.4  66241.9  41.6421  42.2937  86.6004  83.8333  59642.3
   403.6341  60548.3  60873.5  53016.7  60666.2  60671.2  40.4083  41.0486  84.2053  81.6807  54627.8
   403.8847  53775.4  54064.2  47083  53876.4  53880.8  39.136  39.767  81.7643  79.5353  48515.4
   404.1353  46799.9  47051.2  40971.7  46883.4  46887.2  37.8828  38.5053  79.3684  77.4438  42220.2
   404.3860  40272.9  40489.2  35253.6  40340.1  40343.5  36.6851  37.2992  77.0751  75.4353  36329.8
   404.6366  34501.4  34686.6  30197.2  34554.2  34557.1  35.5597  36.165  74.9099  73.522  31121.2
   404.8872  29560.9  29719.6  25869  29601.5  29604  34.5095  35.1057  72.8774  71.7051  26662.6
   405.1378  25405  25541.3  22228.2  25435.5  25437.6  33.5307  34.1174  70.9707  69.9796  22912.1
   405.3885  21936.9  22054.6  19190.1  21959  21960.8  32.6165  33.1934  69.1784  68.3387  19782.4
   405.6391  19048.8  19150.9  16660.1  19064  19065.5  31.7596  32.3264  67.4884  66.7746  17176.1
   405.8897  16640  16729.2  14550.2  16649.6  16650.9  30.953  31.5098  65.8892  65.2804  15002.4
   406.1404  14623.6  14702  12784  14628.6  14629.8  30.1908  30.7374  64.3706  63.8498  13182.9
   406.3910  12927.4  12996.7  11298.3  12928.5  12929.6  29.4677  30.0043  62.9243  62.4774  11652.3
   406.6416  11492.5  11554.1  10041.6  11490.5  11491.4  28.7796  29.3062  61.5428  61.1584  10357.5
   406.8922  10271.6  10326.6  8972.38  10267  10267.8  28.1228  28.6395  60.2202  59.8889  9255.9
   407.1429  9226.57  9275.94  8057.26  9219.82  9220.57  27.4944  28.0013  58.9512  58.6654  8313.02
   407.3935  8326.93  8371.47  7269.5  8318.39  8319.07  26.8917  27.3892  57.7315  57.4849  7501.33
   407.6441  7548.08  7588.43  6587.55  7538.05  7538.67  26.3128  26.8009  56.5575  56.3447  6798.65
   407.8947  6870.16  6906.87  5994.03  6858.89  6859.45  25.7557  26.2347  55.4258  55.2425  6187.05
   408.1454  6277.05  6310.58  5474.81  6264.76  6265.27  25.219  25.689  54.3336  54.1761  5652
   408.3960  5755.61  5786.34  5018.37  5742.47  5742.93  24.7012  25.1624  53.2786  53.1437  5181.62
   408.6466  5295.07  5323.32  4615.28  5281.21  5281.64  24.2011  24.6537  52.2585  52.1436  4766.19
   408.8972  4886.53  4912.59  4257.74  4872.08  4872.48  23.7176  24.1619  51.2714  51.1742  4397.7
   409.1479  4522.64  4546.74  3939.3  4507.7  4508.06  23.2499  23.6861  50.3155  50.234  4069.48
   409.3985  4197.24  4219.6  3654.59  4181.91  4182.24  22.7971  23.2253  49.3892  49.3218  3776.01
   409.6491  3905.21  3925.99  3399.1  3889.55  3889.86  22.3584  22.7788  48.4911  48.4363  3512.64
   409.8997  3642.2  3661.58  3169.03  3626.29  3626.58  21.933  22.3459  47.6198  47.5764  3275.47
   410.1504  3404.57  3422.67  2961.18  3388.45  3388.72  21.5205  21.926  46.7742  46.741  3061.19
   410.4010  3189.19  3206.13  2772.82  3172.91  3173.17  21.12  21.5183  45.953  45.9291  2866.99
   410.6516  2993.41  3009.31  2601.63  2977.02  2977.26  20.7312  21.1225  45.1553  45.1397  2690.48
   410.9023  2814.96  2829.9  2445.61  2798.49  2798.71  20.3536  20.738  44.38  44.3721  2529.59
   411.1529  2651.87  2665.93  2303.04  2635.35  2635.56  19.9865  20.3643  43.6262  43.6253  2382.57
   411.4035  2502.45  2515.71  2172.44  2485.9  2486.1  19.6297  20.0009  42.8931  42.8985  2247.88
   411.6541  2365.23  2377.75  2052.52  2348.68  2348.86  19.2826  19.6476  42.1798  42.1911  2124.2
   411.9048  2238.92  2250.77  1942.15  2222.39  2222.57  18.945  19.3037  41.4856  41.5023  2010.36
   412.1554  2122.42  2133.65  1840.37  2105.92  2106.09  18.6164  18.9691  40.8098  40.8315  1905.37
   412.4060  2014.74  2025.39  1746.31  1998.29  1998.45  18.2964  18.6432  40.1517  40.1779  1808.34
   412.6566  1915.02  1925.13  1659.22  1898.63  1898.78  17.9849  18.3259  39.5106  39.541  1718.48
   412.9073  1822.5  1832.12  1578.43  1806.18  1806.32  17.6814  18.0168  38.8859  38.9202  1635.12
   413.1579  1736.51  1745.66  1503.35  1720.27  1720.4  17.3857  17.7156  38.2771  38.315  1557.65
   413.4085  1656.44  1665.17  1433.46  1640.3  1640.43  17.0974  17.4221  37.6835  37.7248  1485.52
   413.6591  1581.78  1590.11  1368.3  1565.74  1565.86  16.8164  17.1359  37.1047  37.1491  1418.27
   413.9098  1512.05  1520.01  1307.45  1496.11  1496.22  16.5424  16.8567  36.5401  36.5874  1355.47
   414.1604  1446.83  1454.44  1250.55  1430.99  1431.1  16.2751  16.5845  35.9893  36.0393  1296.73
   414.4110  1385.74  1393.02  1197.26  1370.01  1370.12  16.0144  16.3189  35.4518  35.5043  1241.71
   414.6617  1328.43  1335.4  1147.28  1312.82  1312.92  15.7599  16.0596  34.9272  34.9821  1190.11
   414.9123  1274.61  1281.29  1100.35  1259.12  1259.22  15.5115  15.8066  34.415  34.4721  1141.66
   415.1629  1224  1230.41  1056.22  1208.63  1208.72  15.269  15.5596  33.9149  33.9741  1096.09
   415.4135  1176.35  1182.5  1014.68  1161.1  1161.19  15.0322  15.3184  33.4265  33.4875  1053.19
   415.6642  1131.42  1137.34  975.536  1116.3  1116.39  14.8009  15.0828  32.9493  33.0122  1012.76
   415.9148  1089.03  1094.72  938.6  1074.04  1074.12  14.575  14.8526  32.4831  32.5477  974.607
   416.1654  1048.99  1054.46  903.712  1034.11  1034.19  14.3543  14.6277  32.0274  32.0937  938.567
   416.4160  1011.11  1016.38  870.725  996.368  996.442  14.1385  14.4079  31.5821  31.6498  904.486
   416.6667  975.257  980.338  839.503  960.641  960.713  13.9277  14.1931  31.1467  31.2159  872.226
   416.9173  941.283  946.182  809.924  926.794  926.863  13.7215  13.9831  30.721  30.7915  841.66
   417.1679  909.059  913.786  781.875  894.697  894.764  13.5199  13.7777  30.3046  30.3764  812.672
   417.4185  878.467  883.031  755.252  864.233  864.297  13.3228  13.5768  29.8974  29.9703  785.155
   417.6692  849.4  853.808  729.96  835.292  835.354  13.13  13.3804  29.4989  29.573  759.012
   417.9198  821.757  826.018  705.914  807.776  807.835  12.9413  13.1882  29.1091  29.1842  734.153
   418.1704  795.448  799.568  683.032  781.592  781.65  12.7567  13.0001  28.7275  28.8037  710.495
   418.4211  770.388  774.374  661.24  756.657  756.712  12.576  12.816  28.354  28.4311  687.963
   418.6717  746.499  750.358  640.472  732.892  732.945  12.3992  12.6359  27.9884  28.0664  666.486
   418.9223  723.709  727.447  620.664  710.225  710.277  12.2261  12.4595  27.6304  27.7093  645.999
   419.1729  701.953  705.575  601.757  688.591  688.641  12.0566  12.2868  27.2799  27.3595  626.443
   419.4236  681.168  684.679  583.699  667.927  667.976  11.8906  12.1177  26.9365  27.0169  607.763
   419.6742  661.299  664.703  566.439  648.177  648.224  11.7281  11.9521  26.6002  26.6813  589.906
   419.9248  642.29  645.594  549.932  629.287  629.333  11.5688  11.7898  26.2706  26.3525  572.826
   420.1754  624.095  627.302  534.133  611.209  611.253  11.4128  11.6309  25.9477  26.0302  556.478
   420.4261  606.667  609.781  519.004  593.897  593.94  11.26  11.4751  25.6313  25.7144  540.821
   420.6767  589.963  592.988  504.507  577.308  577.35  11.1102  11.3225  25.3211  25.4048  525.816
   420.9273  573.944  576.884  490.607  561.403  561.443  10.9633  11.1729  25.017  25.1013  511.427
   421.1779  558.573  561.431  477.273  546.144  546.183  10.8194  11.0262  24.7189  24.8037  497.623
   421.4286  543.816  546.595  464.473  531.498  531.536  10.6783  10.8825  24.4266  24.5119  484.37
   421.6792  529.64  532.343  452.181  517.431  517.468  10.54  10.7415  24.1399  24.2257  471.641
   421.9298  516.015  518.646  440.368  503.914  503.95  10.4043  10.6032  23.8588  23.945  459.408
   422.1805  502.913  505.474  429.012  490.919  490.954  10.2712  10.4677  23.583  23.6696  447.646
   422.4311  490.307  492.802  418.088  478.419  478.453  10.1407  10.3347  23.3124  23.3995  436.331
   422.6817  478.174  480.603  407.575  466.39  466.423  10.0127  10.2042  23.0468  23.1343  425.44
   422.9323  466.488  468.856  397.454  454.807  454.839  9.88706  10.0762  22.7863  22.8742  414.953
   423.1830  455.229  457.537  387.703  443.65  443.681  9.76378  9.95058  22.5306  22.6188  404.849
   423.4336  444.377  446.627  378.307  432.898  432.928  9.6428  9.82731  22.2795  22.3681  395.112
   423.6842  433.911  436.105  369.247  422.531  422.56  9.52407  9.70632  22.0331  22.122  385.722
   423.9348  423.813  425.954  360.508  412.531  412.56  9.40751  9.58755  21.7912  21.8804  376.663
   424.1855  414.067  416.156  352.075  402.882  402.91  9.29309  9.47096  21.5536  21.6431  367.921
   424.4361  404.657  406.696  343.935  393.566  393.593  9.18074  9.35648  21.3204  21.4101  359.481
   424.6867  395.566  397.557  336.072  384.569  384.596  9.07042  9.24407  21.0912  21.1813  351.328
   424.9373  386.781  388.726  328.476  375.877  375.903  8.96208  9.13367  20.8662  20.9564  343.451
   425.1880  378.289  380.188  321.134  367.476  367.501  8.85567  9.02524  20.6451  20.7356  335.836
   425.4386  370.075  371.931  314.035  359.352  359.377  8.75115  8.91874  20.4279  20.5186  328.473
   425.6892  362.129  363.943  307.169  351.495  351.519  8.64848  8.81411  20.2144  20.3054  321.349
   425.9398  354.438  356.211  300.525  343.892  343.916  8.5476  8.71131  20.0047  20.0958  314.456
   426.1905  346.993  348.726  294.093  336.533  336.556  8.44848  8.61031  19.7986  19.8899  307.783
   426.4411  339.782  341.477  287.866  329.407  329.43  8.35107  8.51105  19.596  19.6875  301.32
   426.6917  332.795  334.453  281.834  322.505  322.527  8.25534  8.4135  19.3968  19.4885  295.06
   426.9424  326.024  327.647  275.99  315.817  315.839  8.16125  8.31763  19.201  19.2929  288.994
   427.1930  319.46  321.048  270.325  309.335  309.356  8.06876  8.22338  19.0085  19.1005  283.113
   427.4436  313.094  314.648  264.833  303.05  303.07  7.97784  8.13073  18.8192  18.9114  277.41
   427.6942  306.919  308.44  259.506  296.954  296.974  7.88844  8.03963  18.6331  18.7253  271.879
   427.9449  300.926  302.416  254.338  291.041  291.06  7.80054  7.95006  18.45  18.5424  266.512
   428.1955  295.11  296.569  249.322  285.301  285.321  7.7141  7.86198  18.2699  18.3625  261.303
   428.4461  289.462  290.891  244.453  279.73  279.749  7.6291  7.77536  18.0928  18.1854  256.246
   428.6967  283.977  285.377  239.726  274.32  274.339  7.54549  7.69016  17.9185  18.0113  251.335
   428.9474  278.648  280.019  235.134  269.066  269.084  7.46325  7.60635  17.7471  17.8399  246.564
   429.1980  273.469  274.813  230.672  263.961  263.978  7.38235  7.52391  17.5784  17.6713  241.928
   429.4486  268.435  269.753  226.337  258.999  259.016  7.30276  7.44281  17.4124  17.5054  237.422
   429.6992  263.54  264.832  222.122  254.176  254.193  7.22444  7.363  17.249  17.3421  233.042
   429.9499  258.78  260.047  218.023  249.486  249.503  7.14739  7.28448  17.0882  17.1814  228.782
   430.2005  254.149  255.391  214.037  244.925  244.941  7.07156  7.20721  16.9299  17.0232  224.638
   430.4511  249.643  250.861  210.159  240.487  240.503  6.99693  7.13116  16.7741  16.8674  220.606
   430.7018  245.257  246.452  206.386  236.169  236.185  6.92347  7.05631  16.6207  16.7141  216.683
   430.9524  240.987  242.16  202.713  231.966  231.982  6.85117  6.98263  16.4697  16.5631  212.863
   431.2030  236.829  237.98  199.137  227.874  227.889  6.78  6.9101  16.3209  16.4145  209.144
   431.4536  232.779  233.909  195.655  223.89  223.904  6.70993  6.83869  16.1745  16.2681  205.522
   431.7043  228.834  229.943  192.263  220.009  220.023  6.64094  6.76839  16.0303  16.1239  201.994
   431.9549  224.989  226.078  188.959  216.227  216.242  6.57301  6.69917  15.8882  15.9819  198.556
   432.2055  221.242  222.311  185.739  212.543  212.557  6.50612  6.631  15.7483  15.842  195.205
   432.4561  217.589  218.638  182.6  208.951  208.965  6.44024  6.56387  15.6105  15.7042  191.939
   432.7068  214.026  215.057  179.54  205.45  205.464  6.37536  6.49776  15.4747  15.5685  188.755
   432.9574  210.552  211.565  176.557  202.036  202.049  6.31146  6.43263  15.341  15.4347  185.65
   433.2080  207.163  208.158  173.647  198.707  198.719  6.24851  6.36849  15.2091  15.303  182.621
   433.4586  203.856  204.834  170.809  195.458  195.471  6.1865  6.3053  15.0793  15.1731  179.665
   433.7093  200.629  201.59  168.039  192.289  192.302  6.12541  6.24304  14.9513  15.0451  176.782
   433.9599  197.479  198.423  165.336  189.196  189.209  6.06522  6.1817  14.8251  14.919  173.967
   434.2105  194.404  195.332  162.698  186.178  186.189  6.00591  6.12127  14.7008  14.7947  171.22
   434.4612  191.401  192.313  160.122  183.23  183.242  5.94747  6.06171  14.5783  14.6722  168.537
   434.7118  188.468  189.365  157.608  180.352  180.364  5.88988  6.00302  14.4575  14.5514  165.917
   434.9624  185.603  186.485  155.151  177.542  177.553  5.83312  5.94518  14.3384  14.4323  163.358
   435.2130  182.804  183.671  152.752  174.796  174.807  5.77718  5.88817  14.221  14.3149  160.858
   435.4637  180.068  180.921  150.408  172.114  172.125  5.72203  5.83198  14.1053  14.1991  158.416
   435.7143  177.395  178.233  148.117  169.493  169.504  5.66768  5.77659  13.9911  14.085  156.029
   435.9649  174.781  175.606  145.879  166.931  166.942  5.6141  5.72198  13.8786  13.9724  153.695
   436.2155  172.226  173.038  143.69  164.427  164.437  5.56127  5.66815  13.7676  13.8614  151.414
   436.4662  169.727  170.526  141.551  161.979  161.989  5.50918  5.61507  13.6581  13.7519  149.184
   436.7168  167.284  168.069  139.459  159.585  159.595  5.45783  5.56274  13.5501  13.6439  147.002
   436.9674  164.893  165.666  137.412  157.243  157.253  5.40718  5.51113  13.4436  13.5374  144.869
   437.2180  162.554  163.315  135.411  154.953  154.963  5.35724  5.46024  13.3386  13.4323  142.782
   437.4687  160.265  161.014  133.453  152.712  152.722  5.30799  5.41005  13.2349  13.3287  140.739
   437.7193  158.026  158.763  131.537  150.52  150.529  5.25942  5.36055  13.1327  13.2264  138.741
   437.9699  155.833  156.559  129.662  148.374  148.384  5.21151  5.31172  13.0318  13.1255  136.785
   438.2206  153.687  154.401  127.827  146.274  146.283  5.16425  5.26356  12.9322  13.0259  134.87
   438.4712  151.585  152.289  126.03  144.218  144.227  5.11763  5.21605  12.834  12.9277  132.996
   438.7218  149.527  150.22  124.271  142.206  142.214  5.07164  5.16919  12.7371  12.8307  131.16
   438.9724  147.511  148.194  122.549  140.235  140.243  5.02627  5.12295  12.6414  12.735  129.362
   439.2231  145.537  146.209  120.862  138.304  138.313  4.9815  5.07733  12.547  12.6406  127.602
   439.4737  143.603  144.265  119.21  136.414  136.422  4.93733  5.03231  12.4538  12.5473  125.877
   439.7243  141.707  142.359  117.591  134.561  134.57  4.89374  4.9879  12.3618  12.4553  124.187
   439.9749  139.85  140.492  116.005  132.746  132.755  4.85073  4.94406  12.271  12.3645  122.531
   440.2256  138.029  138.662  114.451  130.968  130.976  4.80829  4.90081  12.1814  12.2748  120.908
   440.4762  136.245  136.868  112.928  129.225  129.233  4.76639  4.85812  12.0929  12.1862  119.317
   440.7268  134.495  135.11  111.435  127.517  127.525  4.72505  4.81598  12.0055  12.0988  117.758
   440.9774  132.78  133.385  109.971  125.842  125.85  4.68424  4.77439  11.9192  12.0125  116.229
   441.2281  131.098  131.694  108.536  124.2  124.208  4.64395  4.73334  11.834  11.9273  114.73
   441.4787  129.448  130.036  107.129  122.59  122.598  4.60419  4.69281  11.7499  11.8431  113.26
   441.7293  127.829  128.409  105.749  121.011  121.019  4.56493  4.6528  11.6668  11.76  111.818
   441.9799  126.242  126.813  104.396  119.462  119.47  4.52617  4.61331  11.5848  11.6779  110.404
   442.2306  124.684  125.248  103.069  117.943  117.95  4.4879  4.57431  11.5037  11.5968  109.017
   442.4812  123.156  123.711  101.766  116.453  116.46  4.45012  4.53581  11.4237  11.5167  107.655
   442.7318  121.656  122.204  100.488  114.991  114.998  4.41281  4.49779  11.3446  11.4376  106.319
   442.9825  120.184  120.724  99.2342  113.556  113.563  4.37597  4.46024  11.2665  11.3594  105.008
   443.2331  118.739  119.271  98.0035  112.147  112.154  4.33959  4.42317  11.1894  11.2822  103.722
   443.4837  117.32  117.846  96.7955  110.765  110.772  4.30366  4.38655  11.1132  11.2059  102.458
   443.7343  115.928  116.445  95.6098  109.408  109.415  4.26818  4.35039  11.0379  11.1306  101.218
   443.9850  114.56  115.071  94.4457  108.076  108.083  4.23313  4.31467  10.9634  11.0561  100.001
   444.2356  113.217  113.721  93.3027  106.768  106.775  4.19851  4.27939  10.8899  10.9825  98.8052
   444.4862  111.898  112.395  92.1803  105.484  105.49  4.16432  4.24455  10.8173  10.9098  97.6311
   444.7368  110.602  111.092  91.078  104.223  104.229  4.13054  4.21012  10.7455  10.838  96.4778
   444.9875  109.329  109.813  89.9954  102.984  102.99  4.09717  4.17612  10.6745  10.767  95.345
   445.2381  108.078  108.556  88.932  101.767  101.773  4.0642  4.14252  10.6044  10.6968  94.2322
   445.4887  106.85  107.321  87.8873  100.571  100.577  4.03163  4.10933  10.5351  10.6274  93.1388
   445.7393  105.642  106.107  86.8609  99.3968  99.4028  3.99945  4.07653  10.4666  10.5588  92.0645
   445.9900  104.456  104.914  85.8523  98.2428  98.2486  3.96766  4.04413  10.3989  10.4911  91.0088
   446.2406  103.289  103.742  84.8612  97.1086  97.1144  3.93624  4.01211  10.3319  10.4241  89.9712
   446.4912  102.143  102.589  83.8872  95.9941  95.9998  3.90519  3.98047  10.2658  10.3578  88.9514
   446.7419  101.015  101.456  82.9298  94.8985  94.9042  3.87451  3.94921  10.2004  10.2924  87.9489
   446.9925  99.9073  100.342  81.9888  93.8217  93.8272  3.84419  3.91831  10.1357  10.2276  86.9634
   447.2431  98.8177  99.2472  81.0636  92.763  92.7685  3.81422  3.88777  10.0718  10.1636  85.9945
   447.4937  97.7463  98.1702  80.154  91.7221  91.7276  3.78461  3.85758  10.0085  10.1003  85.0417
   447.7444  96.6925  97.111  79.2597  90.6987  90.7041  3.75533  3.82775  9.94603  10.0378  84.1049
   447.9950  95.6561  96.0693  78.3802  89.6923  89.6976  3.7264  3.79826  9.88422  9.97589  83.1835
   448.2456  94.6367  95.0446  77.5152  88.7026  88.7078  3.6978  3.76912  9.82309  9.9147  82.2772
   448.4962  93.6338  94.0365  76.6645  87.7291  87.7343  3.66952  3.7403  9.76264  9.85418  81.3858
   448.7469  92.6472  93.0448  75.8277  86.7715  86.7767  3.64157  3.71182  9.70286  9.79433  80.5089
   448.9975  91.6765  92.0691  75.0046  85.8296  85.8347  3.61394  3.68366  9.64373  9.73513  79.6461
   449.2481  90.7212  91.109  74.1947  84.9029  84.9079  3.58662  3.65582  9.58525  9.67658  78.7973
   449.4987  89.7812  90.1641  73.3979  83.9911  83.9961  3.55961  3.62829  9.5274  9.61867  77.962
   449.7494  88.8561  89.2343  72.6139  83.0939  83.0989  3.5329  3.60107  9.47019  9.56138  77.1401
   450.0000  87.9456  88.319  71.8424  82.2111  82.2159  3.50649  3.57416  9.41359  9.50471  76.3311