File: examples/mos2-example1/ref/raman_spectra2.dat
#Raman spectra
#Laser energy   2.33 eV
#Raman shift (cm-1), Raman Spectra (XX,YY,ZZ,s+s+,s-s-,XY,YX,s+s-,s-s+,nonpol)
   350.0000  120.236  118.573  44.7752  81.4828  81.883  34.2836  34.8937  72.2167  72.4039  84.3049
   350.2506  121.553  119.873  45.2013  82.2582  82.6622  34.8079  35.4274  73.2768  73.464  85.1317
   350.5013  122.894  121.196  45.6334  83.0447  83.4525  35.3443  35.9733  74.3615  74.5487  85.9731
   350.7519  124.259  122.542  46.0718  83.8426  84.2543  35.8933  36.532  75.4714  75.6587  86.8295
   351.0025  125.649  123.913  46.5165  84.652  85.0676  36.4551  37.1038  76.6074  76.7948  87.7012
   351.2531  127.065  125.31  46.9677  85.4732  85.8928  37.0302  37.6891  77.7703  77.9577  88.5885
   351.5038  128.507  126.732  47.4255  86.3064  86.73  37.6189  38.2884  78.9609  79.1485  89.4918
   351.7544  129.975  128.18  47.89  87.1518  87.5795  38.2219  38.9021  80.1802  80.3679  90.4115
   352.0050  131.471  129.656  48.3614  88.0098  88.4416  38.8394  39.5306  81.429  81.6168  91.348
   352.2556  132.996  131.16  48.8397  88.8804  89.3164  39.472  40.1744  82.7084  82.8963  92.3017
   352.5063  134.549  132.692  49.3252  89.764  90.2043  40.1202  40.8341  84.0193  84.2073  93.273
   352.7569  136.132  134.253  49.818  90.6609  91.1055  40.7845  41.5102  85.3627  85.5509  94.2624
   353.0075  137.746  135.845  50.3181  91.5713  92.0203  41.4653  42.2032  86.7397  86.9281  95.2702
   353.2581  139.391  137.468  50.8259  92.4954  92.9489  42.1634  42.9137  88.1516  88.34  96.297
   353.5088  141.069  139.122  51.3413  93.4336  93.8916  42.8792  43.6422  89.5993  89.788  97.3433
   353.7594  142.78  140.81  51.8647  94.3862  94.8488  43.6134  44.3895  91.0842  91.2731  98.4095
   354.0100  144.525  142.531  52.3961  95.3534  95.8206  44.3666  45.156  92.6076  92.7966  99.4961
   354.2607  146.305  144.286  52.9357  96.3355  96.8075  45.1395  45.9426  94.1707  94.36  100.604
   354.5113  148.122  146.078  53.4836  97.3329  97.8096  45.9327  46.7499  95.775  95.9645  101.733
   354.7619  149.975  147.906  54.0401  98.3459  98.8274  46.7469  47.5787  97.4219  97.6116  102.884
   355.0125  151.867  149.772  54.6054  99.3747  99.8612  47.583  48.4297  99.113  99.3029  104.058
   355.2632  153.799  151.677  55.1795  100.42  100.911  48.4417  49.3036  100.85  101.04  105.255
   355.5138  155.771  153.622  55.7628  101.481  101.978  49.3239  50.2015  102.634  102.824  106.476
   355.7644  157.785  155.608  56.3553  102.56  103.062  50.2303  51.124  104.467  104.658  107.722
   356.0150  159.842  157.636  56.9574  103.656  104.163  51.1619  52.0722  106.351  106.542  108.993
   356.2657  161.944  159.709  57.5691  104.769  105.282  52.1196  53.047  108.288  108.48  110.291
   356.5163  164.091  161.827  58.1907  105.901  106.419  53.1045  54.0494  110.28  110.472  111.614
   356.7669  166.286  163.991  58.8225  107.051  107.574  54.1175  55.0804  112.329  112.521  112.966
   357.0175  168.529  166.203  59.4646  108.22  108.748  55.1598  56.1412  114.437  114.629  114.346
   357.2682  170.823  168.465  60.1172  109.408  109.942  56.2323  57.2328  116.606  116.799  115.754
   357.5188  173.169  170.779  60.7807  110.615  111.156  57.3365  58.3566  118.839  119.032  117.193
   357.7694  175.569  173.145  61.4552  111.843  112.389  58.4735  59.5138  121.138  121.331  118.663
   358.0201  178.024  175.566  62.141  113.091  113.643  59.6445  60.7057  123.506  123.7  120.165
   358.2707  180.537  178.043  62.8383  114.361  114.919  60.8511  61.9337  125.945  126.14  121.7
   358.5213  183.109  180.579  63.5475  115.652  116.216  62.0945  63.1993  128.46  128.655  123.268
   358.7719  185.742  183.176  64.2686  116.964  117.535  63.3765  64.504  131.052  131.247  124.872
   359.0226  188.439  185.835  65.0022  118.3  118.877  64.6985  65.8495  133.725  133.921  126.511
   359.2732  191.201  188.558  65.7483  119.658  120.241  66.0622  67.2375  136.482  136.678  128.188
   359.5238  194.032  191.349  66.5074  121.04  121.63  67.4694  68.6698  139.327  139.524  129.903
   359.7744  196.933  194.209  67.2797  122.446  123.042  68.9221  70.1483  142.263  142.461  131.658
   360.0251  199.906  197.141  68.0655  123.876  124.479  70.422  71.6749  145.295  145.494  133.453
   360.2757  202.956  200.148  68.8652  125.332  125.942  71.9714  73.2518  148.427  148.626  135.292
   360.5263  206.084  203.232  69.679  126.813  127.43  73.5724  74.8813  151.663  151.863  137.174
   360.7769  209.294  206.396  70.5073  128.321  128.946  75.2273  76.5657  155.007  155.208  139.101
   361.0276  212.588  209.644  71.3505  129.856  130.488  76.9386  78.3074  158.466  158.668  141.076
   361.2782  215.97  212.978  72.2089  131.419  132.058  78.7089  80.1092  162.043  162.246  143.099
   361.5288  219.443  216.402  73.0829  133.01  133.656  80.5409  81.9738  165.745  165.948  145.173
   361.7794  223.012  219.919  73.9728  134.63  135.284  82.4374  83.9041  169.577  169.781  147.298
   362.0301  226.679  223.534  74.879  136.28  136.942  84.4016  85.9032  173.545  173.751  149.478
   362.2807  230.448  227.25  75.8021  137.961  138.63  86.4368  87.9745  177.657  177.863  151.715
   362.5313  234.325  231.072  76.7422  139.672  140.35  88.5462  90.1215  181.918  182.125  154.009
   362.7820  238.313  235.003  77.7  141.416  142.101  90.7337  92.3479  186.336  186.544  156.365
   363.0326  242.418  239.049  78.6758  143.193  143.886  93.0031  94.6577  190.919  191.129  158.783
   363.2832  246.643  243.214  79.6701  145.003  145.705  95.3585  97.055  195.676  195.887  161.267
   363.5338  250.995  247.504  80.6834  146.848  147.558  97.8043  99.5443  200.615  200.827  163.818
   363.7845  255.479  251.923  81.716  148.728  149.447  100.345  102.13  205.745  205.958  166.441
   364.0351  260.101  256.479  82.7687  150.645  151.373  102.986  104.819  211.077  211.291  169.138
   364.2857  264.868  261.177  83.8418  152.598  153.336  105.733  107.614  216.621  216.837  171.912
   364.5363  269.785  266.023  84.9359  154.591  155.337  108.59  110.522  222.388  222.605  174.766
   364.7870  274.861  271.026  86.0515  156.622  157.378  111.565  113.55  228.391  228.61  177.704
   365.0376  280.102  276.191  87.1892  158.694  159.459  114.663  116.703  234.643  234.863  180.729
   365.2882  285.516  281.527  88.3497  160.807  161.581  117.892  119.989  241.157  241.379  183.846
   365.5388  291.113  287.043  89.5334  162.962  163.747  121.258  123.416  247.949  248.173  187.059
   365.7895  296.902  292.747  90.7411  165.161  165.956  124.771  126.991  255.034  255.26  190.372
   366.0401  302.891  298.649  91.9734  167.405  168.21  128.438  130.723  262.429  262.657  193.79
   366.2907  309.092  304.76  93.2309  169.695  170.511  132.268  134.621  270.153  270.383  197.317
   366.5414  315.515  311.09  94.5144  172.033  172.858  136.272  138.697  278.225  278.457  200.96
   366.7920  322.173  317.65  95.8246  174.419  175.255  140.46  142.959  286.667  286.902  204.725
   367.0426  329.078  324.454  97.1622  176.855  177.702  144.843  147.42  295.501  295.738  208.616
   367.2932  336.245  331.516  98.5279  179.342  180.2  149.434  152.093  304.753  304.992  212.642
   367.5439  343.687  338.848  99.9226  181.882  182.752  154.246  156.991  314.448  314.69  216.808
   367.7945  351.42  346.468  101.347  184.477  185.358  159.294  162.128  324.615  324.86  221.124
   368.0451  359.462  354.392  102.802  187.127  188.02  164.592  167.52  335.286  335.533  225.596
   368.2957  367.832  362.638  104.289  189.835  190.74  170.158  173.185  346.493  346.744  230.233
   368.5464  376.548  371.225  105.808  192.602  193.519  176.01  179.141  358.274  358.528  235.046
   368.7970  385.633  380.175  107.361  195.431  196.36  182.167  185.408  370.668  370.926  240.044
   369.0476  395.11  389.511  108.948  198.322  199.263  188.653  192.009  383.718  383.98  245.239
   369.2982  405.003  399.258  110.57  201.277  202.232  195.489  198.967  397.471  397.737  250.642
   369.5489  415.341  409.442  112.229  204.299  205.267  202.701  206.308  411.979  412.248  256.267
   369.7995  426.154  420.093  113.926  207.39  208.371  210.319  214.061  427.296  427.57  262.127
   370.0501  437.473  431.243  115.661  210.552  211.546  218.372  222.257  443.485  443.763  268.239
   370.3008  449.335  442.927  117.436  213.786  214.794  226.893  230.93  460.611  460.895  274.618
   370.5514  461.778  455.183  119.253  217.096  218.117  235.921  240.119  478.75  479.038  281.283
   370.8020  474.844  468.053  121.111  220.483  221.518  245.495  249.863  497.981  498.275  288.254
   371.0526  488.581  481.583  123.014  223.95  225  255.661  260.21  518.393  518.693  295.553
   371.3033  503.04  495.824  124.962  227.499  228.564  266.467  271.208  540.084  540.391  303.204
   371.5539  518.276  510.83  126.956  231.134  232.213  277.968  282.914  563.164  563.477  311.233
   371.8045  534.353  526.663  128.998  234.856  235.95  290.225  295.389  587.752  588.072  319.67
   372.0551  551.34  543.392  131.09  238.669  239.779  303.305  308.702  613.981  614.309  328.547
   372.3058  569.312  561.091  133.234  242.577  243.701  317.282  322.928  642  642.336  337.9
   372.5564  588.355  579.843  135.43  246.58  247.72  332.241  338.153  671.974  672.318  347.768
   372.8070  608.564  599.743  137.681  250.684  251.84  348.274  354.472  704.087  704.441  358.196
   373.0576  630.043  620.894  139.988  254.892  256.063  365.486  371.99  738.547  738.91  369.233
   373.3083  652.911  643.412  142.354  259.207  260.394  383.994  390.827  775.585  775.959  380.934
   373.5589  677.302  667.427  144.78  263.632  264.835  403.93  411.118  815.462  815.848  393.361
   373.8095  703.363  693.087  147.269  268.172  269.391  425.443  433.014  858.473  858.872  406.584
   374.0602  731.264  720.557  149.823  272.83  274.066  448.703  456.688  904.952  905.364  420.681
   374.3108  761.195  750.025  152.443  277.612  278.863  473.901  482.335  955.277  955.704  435.741
   374.5614  793.372  781.704  155.133  282.52  283.788  501.256  510.177  1009.88  1010.32  451.866
   374.8120  828.042  815.836  157.894  287.561  288.844  531.019  540.469  1069.25  1069.71  469.171
   375.0627  865.487  852.699  160.73  292.738  294.037  563.475  573.502  1133.96  1134.43  487.787
   375.3133  906.03  892.611  163.643  298.057  299.371  598.954  609.614  1204.64  1205.14  507.866
   375.5639  950.044  935.937  166.635  303.523  304.853  637.839  649.191  1282.06  1282.58  529.583
   375.8145  997.958  983.102  169.711  309.141  310.486  680.571  692.683  1367.07  1367.62  553.138
   376.0652  1050.27  1034.6  172.872  314.919  316.277  727.665  740.616  1460.69  1461.26  578.767
   376.3158  1107.56  1090.99  176.122  320.861  322.233  779.723  793.6  1564.09  1564.69  606.743
   376.5664  1170.52  1152.96  179.465  326.974  328.359  837.451  852.356  1678.66  1679.29  637.386
   376.8170  1239.94  1221.28  182.904  333.266  334.661  901.685  917.733  1806.02  1806.69  671.075
   377.0677  1316.76  1296.89  186.442  339.743  341.148  973.412  990.737  1948.1  1948.81  708.256
   377.3183  1402.11  1380.89  190.084  346.413  347.826  1053.81  1072.57  2107.19  2107.95  749.461
   377.5689  1497.33  1474.6  193.834  353.285  354.704  1144.29  1164.66  2286.04  2286.84  795.326
   377.8195  1604.01  1579.6  197.696  360.366  361.789  1246.55  1268.73  2487.93  2488.8  846.615
   378.0702  1724.11  1697.78  201.674  367.668  369.09  1362.63  1386.89  2716.86  2717.79  904.252
   378.3208  1859.95  1831.47  205.773  375.198  376.616  1495.05  1521.67  2977.66  2978.66  969.36
   378.5714  2014.41  1983.47  209.999  382.969  384.378  1646.86  1676.18  3276.24  3277.32  1043.31
   378.8221  2190.99  2157.23  214.356  390.992  392.385  1821.81  1854.24  3619.86  3621.04  1127.79
   379.0727  2394  2357  218.849  399.278  400.649  2024.56  2060.6  4017.47  4018.75  1224.89
   379.3233  2628.79  2588.04  223.486  407.843  409.181  2260.85  2301.1  4480.18  4481.58  1337.18
   379.5739  2902.01  2856.89  228.272  416.701  417.996  2537.87  2583.05  5021.78  5023.33  1467.87
   379.8246  3221.91  3171.67  233.213  425.869  427.106  2864.54  2915.54  5659.48  5661.2  1620.97
   380.0752  3598.8  3542.52  238.316  435.365  436.526  3251.98  3309.88  6414.68  6416.6  1801.45
   380.3258  4045.44  3981.99  243.589  445.211  446.273  3713.92  3780.03  7313.87  7316.02  2015.45
   380.5764  4577.51  4505.53  249.039  455.428  456.365  4267.03  4343  8389.42  8391.85  2270.44
   380.8271  5213.89  5131.68  254.674  466.042  466.822  4931.05  5018.83  9679.91  9682.68  2575.23
   381.0777  5976.37  5881.91  260.503  477.082  477.663  5727.94  5829.91  11229.1  11232.3  2939.65
   381.3283  6888.24  6779.12  266.535  488.576  488.911  6679.42  6798.34  13082  13085.7  3373.43
   381.5789  7970.28  7843.76  272.78  500.55  500.587  7801.01  7939.9  15274.8  15279  3883.49
   381.8296  9232.15  9085.32  279.247  513.021  512.709  9090.24  9252.08  17814.6  17819.5  4468.75
   382.0802  10656.6  10486.9  285.947  525.99  525.288  10507.3  10694.3  20644  20649.8  5111.45
   382.3308  12176  11981.8  292.891  539.42  538.32  11950.2  12162.9  23593.2  23600  5766.06
   382.5815  13647.9  13429.9  300.088  553.236  551.786  13239.1  13474.8  26339.4  26347.3  6352.26
   382.8321  14851.8  14614.5  307.55  567.328  565.651  14138  14389.7  28426  28434.9  6764.63
   383.0827  15539.7  15291.3  315.288  581.597  579.884  14435.5  14692.5  29393.9  29403.6  6908.81
   383.3333  15541.6  15293.3  323.314  596.017  594.488  14052.8  14302.9  28995.1  29005.1  6749.55
   383.5840  14861.1  14623.8  331.644  610.664  609.509  13090.5  13323.4  27334.4  27344.3  6331.85
   383.8346  13672.9  13454.8  340.296  625.687  625.03  11769.3  11978.7  24807.8  24817.1  5754.3
   384.0852  12225.7  12031  349.289  641.253  641.139  10321.3  10504.9  21896  21904.4  5120.61
   384.3358  10737.6  10566.9  358.644  657.492  657.916  8916.48  9075.13  18986.7  18994  4506.75
   384.5865  9348.23  9200.1  368.38  674.499  675.421  7647.55  7783.61  16311.6  16318  3954.12
   384.8371  8123.13  7994.86  378.52  692.333  693.703  6548.17  6664.67  13969.7  13975.1  3477.82
   385.0877  7078.24  6966.91  389.087  711.035  712.803  5617.59  5717.54  11975.9  11980.6  3077.53
   385.3383  6203.33  6106.21  400.102  730.641  732.762  4839  4925.09  10303.1  10307.1  2745.79
   385.5890  5477.49  5392.18  411.593  751.183  753.62  4190.4  4264.96  8908.37  8911.86  2472.81
   385.8396  4877.52  4801.99  423.587  772.701  775.423  3650.02  3714.96  7746.67  7749.7  2248.9
   386.0902  4381.75  4314.32  436.112  795.236  798.219  3198.52  3255.42  6776.96  6779.6  2065.46
   386.3409  3971.52  3910.81  449.201  818.836  822.062  2819.58  2869.74  5964.22  5966.54  1915.25
   386.5915  3631.33  3576.22  462.887  843.556  847.012  2499.85  2544.32  5279.54  5281.6  1792.36
   386.8421  3348.58  3298.14  477.206  869.457  873.132  2228.51  2268.16  4699.48  4701.32  1692.01
   387.0927  3113.14  3066.62  492.199  896.605  900.492  1996.89  2032.42  4205.16  4206.8  1610.38
   387.3434  2916.9  2873.66  507.907  925.073  929.17  1798.02  1830  3781.43  3782.9  1544.41
   387.5940  2753.36  2712.9  524.378  954.943  959.246  1626.27  1655.2  3416.11  3417.44  1491.68
   387.8446  2617.34  2579.2  541.66  986.302  990.813  1477.15  1503.43  3099.39  3100.6  1450.24
   388.0952  2504.64  2468.46  559.808  1019.25  1023.97  1346.99  1370.95  2823.36  2824.46  1418.52
   388.3459  2411.9  2377.37  578.879  1053.88  1058.81  1232.81  1254.74  2581.55  2582.57  1395.29
   388.5965  2336.42  2303.25  598.939  1090.32  1095.47  1132.17  1152.31  2368.72  2369.65  1379.54
   388.8471  2275.99  2243.97  620.054  1128.69  1134.06  1043.08  1061.63  2180.53  2181.39  1370.5
   389.0977  2228.84  2197.75  642.302  1169.12  1174.72  963.877  981.018  2013.42  2014.22  1367.51
   389.3484  2193.54  2163.2  665.763  1211.77  1217.61  893.18  909.062  1864.43  1865.17  1370.1
   389.5990  2168.92  2139.17  690.527  1256.79  1262.87  829.839  844.594  1731.09  1731.77  1377.86
   389.8496  2154.06  2124.75  716.692  1304.36  1310.71  772.889  786.63  1611.31  1611.95  1390.52
   390.1003  2148.22  2119.22  744.365  1354.68  1361.3  721.513  734.338  1503.36  1503.96  1407.87
   390.3509  2150.83  2122.01  773.664  1407.95  1414.86  675.018  687.016  1405.75  1406.31  1429.77
   390.6015  2161.46  2132.7  804.717  1464.43  1471.63  632.816  644.062  1317.22  1317.75  1456.14
   390.8521  2179.78  2150.98  837.666  1524.35  1531.87  594.4  604.962  1236.71  1237.2  1486.96
   391.1028  2205.61  2176.66  872.668  1588.02  1595.87  559.338  569.275  1163.27  1163.73  1522.27
   391.3534  2238.83  2209.63  909.897  1655.73  1663.94  527.256  536.621  1096.12  1096.55  1562.15
   391.6040  2279.43  2249.89  949.543  1727.84  1736.43  497.828  506.669  1034.57  1034.98  1606.74
   391.8546  2327.49  2297.49  991.819  1804.75  1813.72  470.775  479.133  978.02  978.403  1656.22
   392.1053  2383.16  2352.61  1036.96  1886.86  1896.26  445.849  453.763  925.948  926.308  1710.83
   392.3559  2446.68  2415.48  1085.23  1974.67  1984.53  422.837  430.34  877.9  878.238  1770.85
   392.6065  2518.38  2486.42  1136.93  2068.71  2079.05  401.549  408.672  833.475  833.792  1836.62
   392.8571  2598.68  2565.85  1192.37  2169.57  2180.43  381.819  388.59  792.322  792.619  1908.55
   393.1078  2688.09  2654.27  1251.93  2277.93  2289.34  363.501  369.945  754.131  754.408  1987.11
   393.3584  2787.23  2752.3  1316.03  2394.54  2406.54  346.464  352.603  718.626  718.885  2072.85
   393.6090  2896.82  2860.65  1385.13  2520.25  2532.89  330.592  336.448  685.565  685.806  2166.39
   393.8596  3017.72  2980.17  1459.76  2656.02  2669.35  315.785  321.375  654.73  654.953  2268.46
   394.1103  3150.92  3111.85  1540.52  2802.93  2817.02  301.948  307.291  625.929  626.134  2379.89
   394.3609  3297.6  3256.83  1628.08  2962.24  2977.14  289.001  294.112  598.987  599.174  2501.63
   394.6115  3459.08  3416.44  1723.23  3135.35  3151.13  276.87  281.763  573.751  573.92  2634.79
   394.8622  3636.94  3592.22  1826.87  3323.89  3340.62  265.489  270.177  550.081  550.232  2780.63
   395.1128  3832.97  3785.96  1939.99  3529.71  3547.48  254.798  259.293  527.852  527.984  2940.61
   395.3634  4049.29  3999.74  2063.8  3754.95  3773.87  244.744  249.058  506.951  507.065  3116.43
   395.6140  4288.35  4235.98  2199.65  4002.11  4022.28  235.278  239.421  487.276  487.37  3310.05
   395.8647  4553  4497.51  2349.13  4274.05  4295.6  226.357  230.338  468.736  468.81  3523.75
   396.1153  4846.59  4787.62  2514.08  4574.15  4597.22  217.941  221.769  451.246  451.299  3760.22
   396.3659  5173.05  5110.22  2696.67  4906.34  4931.1  209.994  213.677  434.732  434.761  4022.59
   396.6165  5537.02  5469.87  2899.44  5275.26  5301.89  202.484  206.028  419.124  419.129  4314.56
   396.8672  5944  5872.02  3125.42  5686.39  5715.1  195.381  198.794  404.36  404.339  4640.49
   397.1178  6400.51  6323.11  3378.17  6146.24  6177.27  188.657  191.946  390.383  390.334  5005.6
   397.3684  6914.38  6830.87  3661.97  6662.57  6696.22  182.29  185.459  377.143  377.062  5416.08
   397.6190  7494.99  7404.56  3981.95  7244.72  7281.32  176.257  179.312  364.591  364.477  5879.4
   397.8697  8153.65  8055.38  4344.28  7903.95  7943.88  170.538  173.484  352.687  352.534  6404.55
   398.1203  8904.12  8796.9  4756.48  8653.89  8697.62  165.116  167.956  341.391  341.196  7002.46
   398.3709  9763.17  9645.7  5227.7  9511.2  9559.27  159.974  162.714  330.669  330.427  7686.44
   398.6216  10751.4  10622.1  5769.15  10496.3  10549.3  155.1  157.742  320.491  320.195  8472.83
   398.8722  11894.1  11751.2  6394.65  11634.3  11693.1  150.481  153.028  310.829  310.473  9381.75
   399.1228  13222.6  13063.9  7121.33  12956.4  13021.9  146.108  148.562  301.662  301.235  10438.1
   399.3734  14776.1  14598.8  7970.45  14501.2  14574.6  141.973  144.335  292.968  292.459  11673
   399.6241  16603.1  16404  8968.5  16317.1  16399.6  138.071  140.343  284.733  284.129  13124.8
   399.8747  18764.1  18539.2  10148.5  18463.9  18557.3  134.399  136.581  276.946  276.23  14841.7
   400.1253  21334.3  21078.6  11551.3  21016.1  21122.4  130.957  133.05  269.6  268.752  16883.2
   400.3759  24405.8  24113.5  13227.3  24065.4  24187.1  127.75  129.75  262.693  261.688  19322.7
   400.6266  28089.8  27753.5  15236.9  27721.7  27861.9  124.782  126.689  256.231  255.037  22248.3
   400.8772  32514.8  32125.5  17650.3  32112.4  32274.8  122.066  123.874  250.22  248.802  25761.9
   401.1278  37818  37365.3  20542.1  37373.7  37562.8  119.611  121.315  244.674  242.986  29972.5
   401.3784  44122.4  43594.4  23979.5  43627.7  43848.4  117.429  119.023  239.602  237.595  34977.8
   401.6291  51486.2  50870.2  27994.2  50931.8  51189.5  115.52  116.998  235.002  232.622  40824
   401.8797  59810.4  59094.9  32532.1  59188  59487.4  113.865  115.219  230.84  228.039  47432.4
   402.1303  68699.8  67878  37378.1  68004.5  68348.5  112.401  113.629  227.023  223.773  54489.4
   402.3810  77318.8  76394  42076.6  76552.8  76940.1  111.003  112.108  223.367  219.681  61331.7
   402.6316  84371.1  83362  45921.2  83547.6  83970.3  109.481  110.48  219.595  215.553  66930.4
   402.8822  88390.7  87333.6  48113.1  87535.5  87978.4  107.62  108.541  215.396  211.15  70121.9
   403.1328  88364.4  87307.6  48100.1  87511.9  87954.6  105.273  106.152  210.553  206.307  70102
   403.3835  84298.5  83290.3  45885.7  83483.1  83905.4  102.435  103.31  205.058  201.014  66875.6
   403.6341  77215.2  76291.8  42026.9  76462.5  76849.3  99.2486  100.146  199.112  195.422  61254.2
   403.8847  68581.6  67761.4  37323.2  67904.7  68248.3  95.9183  96.8538  193.008  189.751  54402.2
   404.1353  59689.8  58975.9  32478.8  59090.9  59389.8  92.625  93.6021  187.004  184.192  47345.1
   404.3860  51369.9  50755.4  27945.9  50843.9  51101.2  89.4838  90.4988  181.263  178.868  40742
   404.6366  44012.6  43486.1  23937.7  43551.4  43771.8  86.547  87.5927  175.859  173.832  34903
   404.8872  37714.8  37263.5  20506.7  37309.2  37497.9  83.8256  84.8938  170.805  169.093  29904.8
   405.1378  32416.9  32029  17620.6  32058.4  32220.6  81.308  82.3912  166.084  164.636  25700.4
   405.3885  27995.7  27660.7  15212.2  27676.7  27816.7  78.9741  80.0656  161.663  160.436  22191.7
   405.6391  24313.8  24022.8  13206.7  24027.9  24149.4  76.8017  77.8959  157.51  156.467  19269.9
   405.8897  21242.9  20988.6  11534.1  20984.8  21091  74.77  75.8627  153.593  152.703  16833
   406.1404  18672.1  18448.5  10134  18437.6  18530.8  72.8609  73.9486  149.885  149.123  14793
   406.3910  16509.4  16311.7  8956.32  16294.9  16377.3  71.0591  72.1391  146.362  145.707  13077
   406.6416  14679.8  14504  7960.12  14482.4  14555.7  69.352  70.4222  143.004  142.441  11625.3
   406.8922  13122.9  12965.7  7112.51  12940.3  13005.8  67.7288  68.7877  139.796  139.31  10390.1
   407.1429  11790.3  11649  6387.08  11620.5  11679.3  66.1809  67.2272  136.724  136.303  9332.92
   407.3935  10643  10515.5  5762.61  10484.3  10537.4  64.7009  65.7338  133.775  133.411  8422.76
   407.6441  9649.68  9534  5222.03  9500.83  9548.88  63.2827  64.3016  130.94  130.625  7634.81
   407.8947  8785.01  8679.67  4751.54  8644.83  8688.55  61.9211  62.9255  128.211  127.937  6948.97
   408.1454  8028.45  7932.17  4339.94  7895.99  7935.92  60.6117  61.6013  125.579  125.343  6348.93
   408.3960  7363.27  7274.94  3978.12  7237.7  7274.3  59.3506  60.3252  123.039  122.835  5821.4
   408.6466  6775.71  6694.41  3658.59  6656.34  6690.01  58.1345  59.0941  120.585  120.41  5355.47
   408.8972  6254.45  6179.39  3375.16  6140.69  6171.74  56.9604  57.905  118.212  118.062  4942.16
   409.1479  5790.11  5720.6  3122.73  5681.43  5710.16  55.8259  56.7555  115.916  115.788  4574
   409.3985  5374.85  5310.31  2897.04  5270.8  5297.46  54.7286  55.6433  113.692  113.584  4244.8
   409.6491  5002.13  4942.05  2694.5  4902.32  4927.11  53.6664  54.5664  111.536  111.447  3949.35
   409.8997  4666.43  4610.36  2512.13  4570.51  4593.62  52.6375  53.523  109.447  109.373  3683.27
   410.1504  4363.07  4310.63  2347.36  4270.74  4292.33  51.6402  52.5114  107.419  107.359  3442.86
   410.4010  4088.09  4038.95  2198.05  3999.09  4019.31  50.673  51.53  105.451  105.404  3224.96
   410.6516  3838.11  3791.96  2062.34  3752.19  3771.16  49.7344  50.5775  103.539  103.505  3026.89
   410.9023  3610.23  3566.8  1938.66  3527.17  3545  48.8231  49.6525  101.683  101.658  2846.35
   411.1529  3401.93  3361  1825.65  3321.55  3338.34  47.9379  48.7539  99.8777  99.8633  2681.35
   411.4035  3211.07  3172.43  1722.12  3133.19  3149.03  47.0777  47.8806  98.1229  98.1172  2530.18
   411.6541  3035.77  2999.22  1627.05  2960.24  2975.2  46.2414  47.0314  96.416  96.4185  2391.35
   411.9048  2874.4  2839.78  1539.57  2801.07  2815.22  45.4281  46.2054  94.7553  94.7651  2263.57
   412.1554  2725.52  2692.69  1458.88  2654.27  2667.69  44.6369  45.4017  93.1389  93.1554  2145.71
   412.4060  2587.9  2556.72  1384.32  2518.62  2531.34  43.8668  44.6195  91.5651  91.5879  2036.76
   412.6566  2460.44  2430.78  1315.28  2393.01  2405.1  43.117  43.8578  90.0324  90.0609  1935.87
   412.9073  2342.16  2313.92  1251.24  2276.48  2287.99  42.3869  43.116  88.5393  88.573  1842.27
   413.1579  2232.21  2205.29  1191.72  2168.2  2179.16  41.6756  42.3933  87.0843  87.1229  1755.27
   413.4085  2129.83  2104.14  1136.32  2067.41  2077.86  40.9825  41.6891  85.6662  85.7092  1674.27
   413.6591  2034.34  2009.8  1084.67  1973.43  1983.4  40.307  41.0025  84.2835  84.3307  1598.73
   413.9098  1945.15  1921.67  1036.43  1885.67  1895.2  39.6483  40.3332  82.9351  82.9862  1528.18
   414.1604  1861.7  1839.23  991.324  1803.6  1812.72  39.006  39.6803  81.6199  81.6745  1462.2
   414.4110  1783.53  1761.99  949.078  1726.74  1735.47  38.3794  39.0435  80.3366  80.3946  1400.39
   414.6617  1710.19  1689.53  909.46  1654.66  1663.02  37.7681  38.4221  79.0843  79.1454  1342.41
   414.9123  1641.31  1621.47  872.257  1586.98  1595  37.1715  37.8156  77.862  77.9259  1287.96
   415.1629  1576.51  1557.45  837.279  1523.34  1531.03  36.5891  37.2236  76.6685  76.7352  1236.75
   415.4135  1515.5  1497.17  804.351  1463.43  1470.82  36.0204  36.6455  75.5031  75.5723  1188.53
   415.6642  1457.97  1440.33  773.318  1406.97  1414.08  35.4651  36.0809  74.3649  74.4363  1143.09
   415.9148  1403.68  1386.69  744.039  1353.7  1360.54  34.9227  35.5295  73.2529  73.3265  1100.2
   416.1654  1352.37  1336  716.383  1303.38  1309.97  34.3928  34.9907  72.1663  72.242  1059.68
   416.4160  1303.85  1288.06  690.234  1255.81  1262.15  33.875  34.4642  71.1044  71.1821  1021.36
   416.6667  1257.9  1242.67  665.484  1210.78  1216.89  33.3689  33.9496  70.0665  70.1459  985.084
   416.9173  1214.36  1199.64  642.036  1168.12  1174.02  32.8741  33.4465  69.0517  69.1328  950.71
   417.1679  1173.05  1158.83  619.801  1127.66  1133.36  32.3904  32.9547  68.0594  68.1421  918.107
   417.4185  1133.83  1120.08  598.697  1089.27  1094.77  31.9174  32.4736  67.0889  67.1731  887.155
   417.6692  1096.55  1083.25  578.648  1052.79  1058.11  31.4547  32.0031  66.1397  66.2252  857.745
   417.9198  1061.1  1048.23  559.586  1018.11  1023.25  31.0021  31.5429  65.2109  65.2977  829.777
   418.1704  1027.35  1014.88  541.447  985.109  990.083  30.5593  31.0925  64.3021  64.3902  803.158
   418.4211  995.197  983.116  524.173  953.68  958.495  30.1259  30.6518  63.4127  63.5019  777.803
   418.6717  964.542  952.829  507.709  923.727  928.391  29.7018  30.2205  62.5422  62.6325  753.633
   418.9223  935.292  923.931  492.007  895.159  899.678  29.2866  29.7982  61.6899  61.7812  730.575
   419.1729  907.364  896.338  477.02  867.891  872.273  28.8801  29.3848  60.8554  60.9477  708.562
   419.4236  880.678  869.973  462.705  841.847  846.097  28.482  28.98  60.0382  60.1314  687.533
   419.6742  855.162  844.764  449.023  816.954  821.078  28.0922  28.5835  59.2378  59.3318  667.429
   419.9248  830.749  820.644  435.937  793.146  797.15  27.7103  28.1951  58.4537  58.5485  648.196
   420.1754  807.375  797.551  423.414  770.361  774.249  27.3363  27.8146  57.6855  57.7811  629.786
   420.4261  784.982  775.428  411.42  748.541  752.319  26.9698  27.4418  56.9328  57.0291  612.152
   420.6767  763.517  754.221  399.928  727.632  731.305  26.6106  27.0765  56.1951  56.2921  595.251
   420.9273  742.928  733.879  388.91  707.586  711.157  26.2586  26.7185  55.4721  55.5698  579.044
   421.1779  723.168  714.358  378.34  688.354  691.828  25.9135  26.3675  54.7634  54.8616  563.491
   421.4286  704.194  695.612  368.193  669.894  673.274  25.5753  26.0234  54.0685  54.1673  548.56
   421.6792  685.963  677.601  358.449  652.165  655.456  25.2436  25.6861  53.3872  53.4865  534.216
   421.9298  668.439  660.287  349.085  635.128  638.333  24.9184  25.3553  52.719  52.8188  520.43
   422.1805  651.584  643.635  340.082  618.75  621.872  24.5994  25.0308  52.0636  52.1639  507.173
   422.4311  635.364  627.611  331.423  602.995  606.037  24.2866  24.7126  51.4208  51.5215  494.419
   422.6817  619.749  612.184  323.09  587.833  590.799  23.9797  24.4004  50.7901  50.8913  482.142
   422.9323  604.709  597.324  315.066  573.235  576.127  23.6786  24.0941  50.1713  50.2729  470.318
   423.1830  590.214  583.005  307.337  559.172  561.993  23.3831  23.7935  49.5641  49.666  458.926
   423.4336  576.24  569.199  299.888  545.62  548.373  23.0932  23.4986  48.9681  49.0704  447.945
   423.6842  562.762  555.883  292.706  532.554  535.24  22.8086  23.2091  48.3832  48.4858  437.355
   423.9348  549.756  543.034  285.779  519.95  522.573  22.5293  22.9249  47.809  47.912  427.138
   424.1855  537.2  530.63  279.094  507.788  510.349  22.2551  22.646  47.2453  47.3485  417.277
   424.4361  525.075  518.65  272.641  496.047  498.549  21.9858  22.3721  46.6918  46.7953  407.755
   424.6867  513.359  507.076  266.408  484.707  487.152  21.7215  22.1031  46.1483  46.252  398.557
   424.9373  502.036  495.889  260.387  473.752  476.141  21.4618  21.839  45.6145  45.7185  389.668
   425.1880  491.087  485.073  254.567  463.163  465.499  21.2069  21.5796  45.0902  45.1944  381.075
   425.4386  480.497  474.61  248.939  452.924  455.209  20.9564  21.3248  44.5752  44.6796  372.764
   425.6892  470.249  464.486  243.496  443.021  445.255  20.7104  21.0745  44.0692  44.1739  364.724
   425.9398  460.329  454.686  238.229  433.439  435.625  20.4687  20.8286  43.5721  43.6769  356.942
   426.1905  450.724  445.196  233.131  424.163  426.302  20.2311  20.587  43.0836  43.1886  349.408
   426.4411  441.419  436.004  228.195  415.182  417.276  19.9978  20.3495  42.6036  42.7087  342.111
   426.6917  432.403  427.096  223.413  406.483  408.532  19.7684  20.1162  42.1318  42.2371  335.042
   426.9424  423.663  418.462  218.78  398.053  400.06  19.543  19.8868  41.668  41.7735  328.191
   427.1930  415.189  410.09  214.29  389.883  391.849  19.3214  19.6614  41.2122  41.3177  321.549
   427.4436  406.969  401.97  209.936  381.962  383.888  19.1035  19.4397  40.764  40.8697  315.108
   427.6942  398.994  394.091  205.713  374.279  376.166  18.8893  19.2218  40.3233  40.4291  308.859
   427.9449  391.254  386.445  201.616  366.825  368.675  18.6788  19.0076  39.89  39.9959  302.796
   428.1955  383.74  379.021  197.64  359.592  361.405  18.4717  18.7969  39.4639  39.5699  296.91
   428.4461  376.443  371.812  193.781  352.57  354.347  18.268  18.5897  39.0448  39.1508  291.195
   428.6967  369.354  364.809  190.033  345.751  347.494  18.0677  18.3859  38.6326  38.7387  285.645
   428.9474  362.466  358.004  186.393  339.128  340.838  17.8707  18.1855  38.2271  38.3333  280.253
   429.1980  355.771  351.391  182.857  332.694  334.371  17.6769  17.9883  37.8282  37.9344  275.013
   429.4486  349.263  344.961  179.419  326.44  328.086  17.4862  17.7943  37.4357  37.542  269.919
   429.6992  342.933  338.708  176.078  320.361  321.976  17.2986  17.6034  37.0495  37.1559  264.966
   429.9499  336.776  332.625  172.829  314.451  316.036  17.114  17.4156  36.6695  36.7759  260.149
   430.2005  330.786  326.707  169.67  308.702  310.257  16.9324  17.2308  36.2955  36.4019  255.464
   430.4511  324.956  320.948  166.596  303.109  304.636  16.7536  17.0489  35.9274  36.0339  250.904
   430.7018  319.28  315.341  163.604  297.666  299.166  16.5777  16.8699  35.5651  35.6716  246.466
   430.9524  313.754  309.882  160.693  292.369  293.842  16.4045  16.6937  35.2084  35.315  242.146
   431.2030  308.372  304.565  157.858  287.211  288.659  16.234  16.5202  34.8573  34.9639  237.938
   431.4536  303.129  299.385  155.098  282.189  283.611  16.0661  16.3494  34.5117  34.6182  233.841
   431.7043  298.021  294.339  152.409  277.297  278.695  15.9009  16.1813  34.1713  34.2779  229.848
   431.9549  293.042  289.42  149.79  272.532  273.905  15.7382  16.0157  33.8361  33.9427  225.958
   432.2055  288.188  284.625  147.237  267.888  269.237  15.578  15.8527  33.5061  33.6126  222.166
   432.4561  283.455  279.95  144.749  263.361  264.688  15.4202  15.6922  33.181  33.2876  218.47
   432.7068  278.84  275.39  142.324  258.948  260.253  15.2648  15.5341  32.8608  32.9674  214.865
   432.9574  274.338  270.943  139.959  254.645  255.928  15.1117  15.3783  32.5455  32.652  211.35
   433.2080  269.946  266.604  137.652  250.449  251.71  14.9609  15.2249  32.2348  32.3413  207.921
   433.4586  265.659  262.369  135.402  246.355  247.596  14.8124  15.0738  31.9287  32.0352  204.575
   433.7093  261.475  258.236  133.206  242.36  243.581  14.6661  14.9249  31.6272  31.7336  201.31
   433.9599  257.391  254.201  131.064  238.462  239.663  14.5219  14.7782  31.3301  31.4365  198.122
   434.2105  253.403  250.261  128.972  234.657  235.839  14.3799  14.6337  31.0373  31.1437  195.01
   434.4612  249.508  246.413  126.931  230.942  232.106  14.2399  14.4913  30.7487  30.8551  191.972
   434.7118  245.703  242.655  124.937  227.315  228.46  14.102  14.3509  30.4644  30.5707  189.004
   434.9624  241.986  238.983  122.99  223.773  224.9  13.966  14.2126  30.1841  30.2904  186.105
   435.2130  238.353  235.395  121.088  220.312  221.422  13.832  14.0763  29.9079  30.0141  183.273
   435.4637  234.803  231.888  119.23  216.932  218.024  13.7  13.9419  29.6356  29.7418  180.505
   435.7143  231.333  228.46  117.414  213.628  214.704  13.5698  13.8094  29.3671  29.4733  177.8
   435.9649  227.941  225.108  115.64  210.399  211.459  13.4415  13.6789  29.1025  29.2086  175.156
   436.2155  224.623  221.831  113.905  207.243  208.287  13.3149  13.5501  28.8415  28.9476  172.571
   436.4662  221.378  218.625  112.209  204.157  205.185  13.1902  13.4232  28.5842  28.6902  170.042
   436.7168  218.204  215.49  110.55  201.14  202.153  13.0672  13.298  28.3305  28.4364  167.57
   436.9674  215.099  212.422  108.928  198.189  199.187  12.9459  13.1746  28.0803  28.1862  165.151
   437.2180  212.06  209.421  107.342  195.302  196.285  12.8263  13.0529  27.8336  27.9394  162.785
   437.4687  209.087  206.483  105.79  192.478  193.447  12.7084  12.9329  27.5902  27.6959  160.469
   437.7193  206.176  203.608  104.271  189.715  190.67  12.5921  12.8146  27.3502  27.4558  158.203
   437.9699  203.327  200.793  102.784  187.01  187.952  12.4773  12.6978  27.1134  27.219  155.984
   438.2206  200.537  198.037  101.33  184.363  185.292  12.3641  12.5826  26.8798  26.9854  153.813
   438.4712  197.805  195.338  99.9055  181.772  182.688  12.2525  12.469  26.6494  26.7548  151.686
   438.7218  195.129  192.695  98.5111  179.235  180.138  12.1424  12.357  26.422  26.5274  149.604
   438.9724  192.508  190.105  97.1457  176.751  177.641  12.0337  12.2464  26.1977  26.3031  147.565
   439.2231  189.94  187.569  95.8085  174.318  175.196  11.9265  12.1373  25.9764  26.0816  145.567
   439.4737  187.423  185.083  94.4987  171.935  172.801  11.8207  12.0297  25.758  25.8632  143.61
   439.7243  184.958  182.647  93.2155  169.601  170.454  11.7163  11.9235  25.5424  25.6476  141.692
   439.9749  182.541  180.26  91.9583  167.313  168.155  11.6133  11.8187  25.3297  25.4348  139.813
   440.2256  180.172  177.92  90.7264  165.072  165.903  11.5117  11.7152  25.1198  25.2248  137.971
   440.4762  177.85  175.626  89.519  162.875  163.695  11.4114  11.6131  24.9126  25.0175  136.166
   440.7268  175.572  173.376  88.3355  160.722  161.531  11.3124  11.5124  24.7081  24.8129  134.396
   440.9774  173.339  171.17  87.1754  158.611  159.409  11.2146  11.413  24.5062  24.6109  132.66
   441.2281  171.149  169.007  86.0379  156.541  157.329  11.1182  11.3148  24.3069  24.4115  130.959
   441.4787  169.001  166.885  84.9225  154.512  155.29  11.0229  11.2179  24.1101  24.2147  129.29
   441.7293  166.894  164.803  83.8287  152.522  153.29  10.9289  11.1222  23.9158  24.0203  127.652
   441.9799  164.826  162.761  82.7559  150.57  151.328  10.8361  11.0278  23.724  23.8284  126.046
   442.2306  162.797  160.756  81.7035  148.655  149.404  10.7445  10.9345  23.5347  23.6389  124.471
   442.4812  160.806  158.79  80.6711  146.777  147.516  10.654  10.8425  23.3476  23.4518  122.924
   442.7318  158.852  156.859  79.658  144.934  145.663  10.5647  10.7516  23.163  23.2671  121.407
   442.9825  156.933  154.964  78.664  143.125  143.846  10.4764  10.6618  22.9806  23.0846  119.918
   443.2331  155.05  153.104  77.6884  141.35  142.062  10.3893  10.5732  22.8004  22.9044  118.456
   443.4837  153.201  151.278  76.7309  139.608  140.311  10.3033  10.4856  22.6225  22.7264  117.021
   443.7343  151.386  149.484  75.7909  137.898  138.592  10.2183  10.3991  22.4468  22.5506  115.612
   443.9850  149.603  147.723  74.8681  136.219  136.904  10.1344  10.3137  22.2732  22.3769  114.228
   444.2356  147.851  145.993  73.962  134.57  135.248  10.0515  10.2294  22.1018  22.2054  112.87
   444.4862  146.131  144.294  73.0723  132.952  133.621  9.96962  10.1461  21.9324  22.0359  111.535
   444.7368  144.441  142.624  72.1985  131.362  132.023  9.88874  10.0638  21.7651  21.8684  110.225
   444.9875  142.781  140.984  71.3403  129.8  130.454  9.80884  9.98246  21.5997  21.703  108.937
   445.2381  141.15  139.373  70.4973  128.267  128.912  9.7299  9.90213  21.4364  21.5396  107.672
   445.4887  139.547  137.789  69.6692  126.76  127.398  9.65191  9.82277  21.275  21.3781  106.429
   445.7393  137.971  136.233  68.8555  125.28  125.91  9.57485  9.74436  21.1155  21.2185  105.208
   445.9900  136.423  134.703  68.0561  123.825  124.448  9.49872  9.66689  20.9579  21.0608  104.008
   446.2406  134.9  133.2  67.2704  122.396  123.011  9.42349  9.59033  20.8022  20.905  102.828
   446.4912  133.404  131.722  66.4983  120.991  121.599  9.34914  9.51468  20.6482  20.751  101.668
   446.7419  131.933  130.268  65.7394  119.61  120.212  9.27568  9.43993  20.4961  20.5988  100.528
   446.9925  130.486  128.839  64.9934  118.253  118.848  9.20308  9.36605  20.3458  20.4483  99.4073
   447.2431  129.063  127.434  64.26  116.918  117.507  9.13133  9.29303  20.1972  20.2996  98.3053
   447.4937  127.664  126.052  63.5389  115.606  116.188  9.06041  9.22087  20.0503  20.1526  97.2216
   447.7444  126.288  124.693  62.83  114.317  114.892  8.99032  9.14954  19.9051  20.0073  96.1559
   447.9950  124.934  123.356  62.1328  113.048  113.617  8.92103  9.07904  19.7615  19.8637  95.1077
   448.2456  123.603  122.04  61.4471  111.801  112.363  8.85255  9.00935  19.6197  19.7217  94.0767
   448.4962  122.293  120.746  60.7728  110.574  111.13  8.78485  8.94046  19.4794  19.5813  93.0625
   448.7469  121.004  119.473  60.1094  109.367  109.917  8.71792  8.87235  19.3407  19.4425  92.0647
   448.9975  119.735  118.22  59.4569  108.18  108.724  8.65176  8.80503  19.2035  19.3053  91.083
   449.2481  118.487  116.987  58.815  107.012  107.55  8.58635  8.73846  19.0679  19.1696  90.117
   449.4987  117.258  115.774  58.1833  105.862  106.395  8.52167  8.67265  18.9339  19.0354  89.1664
   449.7494  116.049  114.579  57.5618  104.732  105.258  8.45773  8.60758  18.8013  18.9027  88.2309
   450.0000  114.859  113.403  56.9502  103.619  104.14  8.3945  8.54324  18.6702  18.7715  87.3101