File: examples/mos2-example1/ref/raman_spectra3.dat
#Raman spectra
#Laser energy   2.54 eV
#Raman shift (cm-1), Raman Spectra (XX,YY,ZZ,s+s+,s-s-,XY,YX,s+s-,s-s+,nonpol)
   350.0000  152.772  148.731  42.0526  81.8056  82.3995  64.2441  65.2836  133.292  133.533  85.041
   350.2506  154.574  150.487  42.4527  82.5842  83.1837  65.2267  66.282  135.28  135.522  85.9585
   350.5013  156.411  152.277  42.8586  83.374  83.9791  66.2319  67.3035  137.314  137.556  86.8936
   350.7519  158.284  154.101  43.2703  84.1751  84.7859  67.2605  68.3488  139.396  139.637  87.8466
   351.0025  160.193  155.961  43.688  84.9879  85.6045  68.3133  69.4186  141.526  141.768  88.8181
   351.2531  162.14  157.858  44.1117  85.8125  86.435  69.3909  70.5137  143.706  143.948  89.8086
   351.5038  164.125  159.793  44.5417  86.6491  87.2776  70.4942  71.6349  145.939  146.181  90.8185
   351.7544  166.15  161.766  44.9779  87.4981  88.1326  71.6241  72.783  148.225  148.467  91.8484
   352.0050  168.216  163.779  45.4206  88.3596  89.0002  72.7813  73.959  150.567  150.809  92.8987
   352.2556  170.325  165.833  45.8699  89.2338  89.8807  73.9667  75.1636  152.965  153.208  93.9701
   352.5063  172.476  167.929  46.3259  90.1211  90.7743  75.1813  76.3979  155.423  155.666  95.0631
   352.7569  174.672  170.069  46.7887  91.0218  91.6813  76.4261  77.6628  157.942  158.185  96.1783
   353.0075  176.914  172.253  47.2584  91.9359  92.6019  77.702  78.9594  160.523  160.767  97.3162
   353.2581  179.202  174.483  47.7353  92.8639  93.5365  79.01  80.2886  163.17  163.413  98.4777
   353.5088  181.54  176.76  48.2194  93.8061  94.4853  80.3514  81.6517  165.884  166.128  99.6632
   353.7594  183.927  179.086  48.7109  94.7626  95.4486  81.7272  83.0498  168.668  168.912  100.874
   354.0100  186.366  181.463  49.21  95.7339  96.4268  83.1386  84.4841  171.523  171.767  102.109
   354.2607  188.858  183.891  49.7168  96.7201  97.42  84.5868  85.9558  174.453  174.698  103.371
   354.5113  191.405  186.372  50.2314  97.7217  98.4287  86.0732  87.4662  177.46  177.705  104.661
   354.7619  194.008  188.908  50.7541  98.7389  99.453  87.599  89.0168  180.547  180.792  105.978
   355.0125  196.669  191.501  51.2849  99.7721  100.494  89.1658  90.6089  183.717  183.962  107.323
   355.2632  199.39  194.153  51.8242  100.822  101.55  90.7749  92.2441  186.972  187.218  108.698
   355.5138  202.173  196.865  52.372  101.888  102.624  92.4279  93.9239  190.316  190.562  110.104
   355.7644  205.021  199.639  52.9285  102.971  103.715  94.1265  95.65  193.752  193.998  111.54
   356.0150  207.934  202.478  53.4939  104.071  104.823  95.8722  97.424  197.283  197.53  113.01
   356.2657  210.915  205.383  54.0684  105.19  105.949  97.6669  99.2478  200.914  201.161  114.512
   356.5163  213.967  208.357  54.6523  106.326  107.093  99.5124  101.123  204.646  204.894  116.049
   356.7669  217.092  211.401  55.2456  107.481  108.256  101.411  103.052  208.486  208.734  117.621
   357.0175  220.292  214.52  55.8487  108.655  109.438  103.364  105.037  212.436  212.684  119.231
   357.2682  223.571  217.714  56.4617  109.848  110.64  105.374  107.079  216.501  216.749  120.878
   357.5188  226.929  220.987  57.0848  111.06  111.861  107.443  109.182  220.685  220.934  122.564
   357.7694  230.372  224.341  57.7183  112.294  113.103  109.573  111.347  224.993  225.243  124.29
   358.0201  233.9  227.779  58.3623  113.547  114.365  111.768  113.577  229.43  229.681  126.058
   358.2707  237.518  231.305  59.0173  114.822  115.649  114.029  115.875  234.002  234.253  127.87
   358.5213  241.229  234.921  59.6833  116.119  116.955  116.359  118.242  238.713  238.965  129.726
   358.7719  245.036  238.63  60.3606  117.437  118.282  118.761  120.684  243.57  243.822  131.629
   359.0226  248.943  242.437  61.0495  118.778  119.633  121.238  123.201  248.578  248.831  133.58
   359.2732  252.954  246.345  61.7503  120.142  121.006  123.794  125.798  253.744  253.997  135.58
   359.5238  257.071  250.357  62.4632  121.53  122.404  126.431  128.478  259.074  259.328  137.632
   359.7744  261.3  254.478  63.1886  122.942  123.826  129.153  131.244  264.576  264.831  139.737
   360.0251  265.645  258.712  63.9266  124.379  125.272  131.963  134.1  270.257  270.513  141.898
   360.2757  270.111  263.063  64.6776  125.841  126.744  134.867  137.051  276.125  276.381  144.116
   360.5263  274.701  267.537  65.442  127.329  128.243  137.867  140.099  282.187  282.444  146.394
   360.7769  279.422  272.137  66.2199  128.844  129.768  140.968  143.251  288.454  288.712  148.734
   361.0276  284.278  276.869  67.0118  130.385  131.32  144.175  146.509  294.933  295.192  151.138
   361.2782  289.275  281.738  67.818  131.955  132.901  147.492  149.88  301.635  301.895  153.609
   361.5288  294.419  286.751  68.6388  133.553  134.51  150.925  153.369  308.57  308.831  156.15
   361.7794  299.716  291.913  69.4746  135.181  136.148  154.479  156.981  315.749  316.011  158.764
   362.0301  305.173  297.231  70.3258  136.838  137.817  158.16  160.721  323.183  323.446  161.453
   362.2807  310.796  302.711  71.1927  138.526  139.516  161.973  164.596  330.885  331.149  164.22
   362.5313  316.594  308.36  72.0757  140.245  141.247  165.926  168.613  338.868  339.133  167.07
   362.7820  322.573  314.187  72.9752  141.997  143.011  170.025  172.779  347.145  347.411  170.005
   363.0326  328.742  320.198  73.8917  143.781  144.808  174.278  177.1  355.731  355.998  173.03
   363.2832  335.109  326.403  74.8255  145.6  146.638  178.691  181.586  364.641  364.909  176.147
   363.5338  341.684  332.811  75.7771  147.453  148.504  183.275  186.243  373.893  374.162  179.363
   363.7845  348.476  339.431  76.747  149.342  150.406  188.036  191.082  383.503  383.774  182.68
   364.0351  355.497  346.272  77.7357  151.267  152.344  192.985  196.111  393.491  393.763  186.103
   364.2857  362.756  353.347  78.7435  153.23  154.32  198.131  201.341  403.875  404.149  189.639
   364.5363  370.266  360.665  79.771  155.232  156.335  203.486  206.782  414.679  414.954  193.291
   364.7870  378.039  368.24  80.8188  157.273  158.389  209.06  212.447  425.924  426.2  197.065
   365.0376  386.088  376.085  81.8874  159.354  160.485  214.866  218.346  437.634  437.912  200.969
   365.2882  394.428  384.212  82.9773  161.477  162.622  220.916  224.495  449.836  450.116  205.007
   365.5388  403.073  392.638  84.089  163.643  164.802  227.225  230.906  462.558  462.839  209.187
   365.7895  412.04  401.377  85.2233  165.852  167.026  233.807  237.595  475.829  476.112  213.516
   366.0401  421.347  410.447  86.3806  168.107  169.296  240.678  244.577  489.681  489.966  218.002
   366.2907  431.01  419.865  87.5617  170.408  171.612  247.856  251.872  504.148  504.435  222.654
   366.5414  441.052  429.652  88.7671  172.757  173.976  255.359  259.496  519.269  519.557  227.48
   366.7920  451.492  439.827  89.9976  175.154  176.389  263.206  267.471  535.081  535.372  232.489
   367.0426  462.353  450.412  91.2538  177.602  178.852  271.42  275.818  551.628  551.921  237.693
   367.2932  473.661  461.433  92.5365  180.101  181.368  280.023  284.56  568.956  569.251  243.102
   367.5439  485.441  472.915  93.8464  182.654  183.937  289.04  293.724  587.115  587.413  248.729
   367.7945  497.723  484.885  95.1843  185.262  186.561  298.498  303.335  606.159  606.458  254.585
   368.0451  510.536  497.373  96.5511  187.925  189.242  308.426  313.424  626.145  626.447  260.685
   368.2957  523.914  510.412  97.9474  190.647  191.981  318.856  324.023  647.136  647.441  267.044
   368.5464  537.894  524.037  99.3742  193.428  194.78  329.822  335.167  669.202  669.509  273.678
   368.7970  552.513  538.286  100.832  196.271  197.64  341.36  346.893  692.415  692.726  280.605
   369.0476  567.815  553.201  102.323  199.177  200.564  353.513  359.242  716.858  717.171  287.843
   369.2982  583.844  568.825  103.847  202.148  203.554  366.323  372.26  742.617  742.933  295.413
   369.5489  600.652  585.207  105.405  205.186  206.611  379.839  385.995  769.789  770.108  303.338
   369.7995  618.292  602.401  106.998  208.293  209.737  394.113  400.501  798.477  798.8  311.642
   370.0501  636.825  620.465  108.628  211.472  212.935  409.203  415.836  828.798  829.123  320.352
   370.3008  656.314  639.461  110.295  214.724  216.206  425.171  432.064  860.875  861.204  329.496
   370.5514  676.83  659.459  112.001  218.052  219.554  442.088  449.255  894.847  895.18  339.108
   370.8020  698.453  680.535  113.747  221.458  222.98  460.029  467.486  930.865  931.201  349.222
   371.0526  721.267  702.773  115.533  224.944  226.486  479.077  486.844  969.095  969.436  359.876
   371.3033  745.367  726.264  117.363  228.514  230.077  499.326  507.422  1009.72  1010.07  371.113
   371.5539  770.856  751.11  119.236  232.17  233.753  520.878  529.323  1052.95  1053.3  382.98
   371.8045  797.85  777.423  121.154  235.914  237.519  543.846  552.664  1099  1099.35  395.529
   372.0551  826.475  805.327  123.119  239.75  241.376  568.357  577.572  1148.12  1148.48  408.816
   372.3058  856.874  834.959  125.131  243.681  245.328  594.549  604.189  1200.6  1200.96  422.906
   372.5564  889.203  866.473  127.194  247.71  249.379  622.58  632.675  1256.74  1257.1  437.869
   372.8070  923.638  900.039  129.308  251.839  253.53  652.624  663.207  1316.88  1317.25  453.784
   373.0576  960.373  935.849  131.475  256.074  257.787  684.876  695.983  1381.42  1381.8  470.741
   373.3083  999.629  974.117  133.697  260.417  262.151  719.558  731.227  1450.79  1451.17  488.837
   373.5589  1041.65  1015.08  135.976  264.872  266.628  756.915  769.191  1525.48  1525.86  508.185
   373.8095  1086.72  1059.01  138.313  269.443  271.221  797.229  810.158  1606.03  1606.42  528.911
   374.0602  1135.14  1106.22  140.711  274.134  275.934  840.814  854.451  1693.08  1693.48  551.155
   374.3108  1187.28  1157.05  143.172  278.95  280.771  888.032  902.436  1787.34  1787.73  575.08
   374.5614  1243.53  1211.88  145.699  283.895  285.738  939.292  954.528  1889.6  1890  600.868
   374.8120  1304.36  1271.18  148.292  288.974  290.838  995.063  1011.2  2000.8  2001.2  628.73
   375.0627  1370.29  1335.46  150.955  294.192  296.076  1055.88  1073.01  2121.98  2122.39  658.905
   375.3133  1441.93  1405.3  153.691  299.554  301.458  1122.37  1140.57  2254.37  2254.78  691.668
   375.5639  1519.97  1481.38  156.501  305.066  306.989  1195.23  1214.62  2399.36  2399.78  727.339
   375.8145  1605.22  1564.48  159.39  310.734  312.675  1275.3  1295.99  2558.59  2559  766.285
   376.0652  1698.6  1655.53  162.359  316.564  318.521  1363.55  1385.67  2733.93  2734.34  808.935
   376.3158  1801.22  1755.57  165.411  322.563  324.535  1461.1  1484.81  2927.59  2928  855.79
   376.5664  1914.34  1865.85  168.551  328.737  330.722  1569.28  1594.74  3142.17  3142.57  907.437
   376.8170  2039.46  1987.83  171.78  335.095  337.09  1689.64  1717.06  3380.7  3381.1  964.571
   377.0677  2178.36  2123.25  175.103  341.643  343.647  1824.05  1853.65  3646.81  3647.2  1028.01
   377.3183  2333.13  2274.15  178.523  348.392  350.399  1974.7  2006.75  3944.78  3945.16  1098.73
   377.5689  2506.3  2442.97  182.045  355.349  357.357  2144.25  2179.04  4279.75  4280.11  1177.91
   377.8195  2700.87  2632.67  185.672  362.525  364.527  2335.87  2373.77  4657.9  4658.23  1266.94
   378.0702  2920.48  2846.78  189.408  369.931  371.921  2553.4  2594.84  5086.68  5086.97  1367.54
   378.3208  3169.53  3089.6  193.257  377.577  379.549  2801.54  2847  5575.15  5575.39  1481.76
   378.5714  3453.4  3366.36  197.225  385.478  387.421  3086  3136.09  6134.39  6134.57  1612.14
   378.8221  3778.68  3683.49  201.317  393.646  395.55  3413.84  3469.25  6777.99  6778.08  1761.79
   379.0727  4153.47  4048.91  205.537  402.099  403.948  3793.76  3855.33  7522.72  7522.7  1934.55
   379.3233  4587.83  4472.4  209.891  410.852  412.631  4236.54  4305.31  8389.38  8389.22  2135.18
   379.5739  5094.24  4966.15  214.385  419.927  421.614  4755.63  4832.83  9403.83  9403.49  2369.61
   379.8246  5688.25  5545.3  219.025  429.346  430.914  5367.78  5454.91  10598.3  10597.7  2645.23
   380.0752  6389.2  6228.73  223.817  439.134  440.553  6093.79  6192.71  12012.8  12011.9  2971.22
   380.3258  7221.13  7039.85  228.768  449.322  450.55  6959.39  7072.36  13697.1  13695.8  3358.91
   380.5764  8213.51  8007.42  233.886  459.944  460.932  7995.85  8125.66  15711.7  15709.9  3822.11
   380.8271  9401.83  9166.04  239.177  471.038  471.726  9240.13  9390.14  18128.9  18126.5  4377.09
   381.0777  10827.1  10555.7  244.649  482.647  482.963  10733.4  10907.7  21030.6  21027.6  5042.02
   381.3283  12533.1  12219.1  250.312  494.815  494.672  12516.4  12719.6  24501.2  24497.4  5834.83
   381.5789  14559  14194.3  256.175  507.579  506.883  14618.1  14855.4  28608.4  28603.9  6768.35
   381.8296  16922.8  16499.1  262.245  520.957  519.615  17033.9  17310.5  33365.3  33360.3  7840.56
   382.0802  19592.2  19101.7  268.535  534.923  532.862  19689.2  20008.9  38664.5  38659.8  9018.58
   382.3308  22439.8  21878.1  275.052  549.381  546.585  22393.1  22756.6  44187.4  44184.3  10218.3
   382.5815  25197.5  24566.8  281.808  564.136  560.69  24808.4  25211.1  49329.2  49329.8  11291.1
   382.8321  27450.6  26763.5  288.814  578.924  575.045  26492.8  26922.8  53234.6  53241.2  12042.3
   383.0827  28732.5  28013.3  296.08  593.497  589.528  27050.3  27489.4  55044.1  55058.3  12297.2
   383.3333  28723.3  28004.2  303.618  607.765  604.099  26333.2  26760.5  54293.9  54315.5  11990.8
   383.5840  27429.7  26742.8  311.444  621.856  618.838  24529.9  24928  51181.5  51208.1  11206.2
   383.8346  25180.3  24549.5  319.573  636.064  633.913  22054.1  22412  46448.6  46477.3  10125.6
   384.0852  22443.1  21880.7  328.023  650.712  649.514  19340.8  19654.6  40995.4  41023.5  8940.79
   384.3358  19628.4  19136.4  336.812  666.054  665.796  16708.4  16979.4  35547.5  35573.2  7792.02
   384.5865  16998.9  16572.6  345.96  682.252  682.864  14330.5  14563  30538.7  30561.3  6755.87
   384.8371  14677.8  14309.5  355.487  699.393  700.784  12270.4  12469.5  26153.9  26173.2  5860.22
   385.0877  12695.1  12376.3  365.413  717.52  719.598  10526.7  10697.4  22421  22437.4  5104.45
   385.3383  11031.5  10754.3  375.761  736.659  739.342  9067.68  9214.78  19289.1  19303  4474.7
   385.5890  9647.53  9404.9  386.555  756.827  760.047  7852.29  7979.67  16677.9  16689.7  3952.87
   385.8396  8499.6  8285.64  397.821  778.05  781.749  6839.69  6950.64  14502.9  14512.9  3520.99
   386.0902  7546.89  7356.71  409.586  800.355  804.489  5993.62  6090.84  12687.3  12695.9  3163.12
   386.3409  6754.2  6583.8  421.88  823.78  828.314  5283.54  5369.24  11165.7  11173  2865.85
   386.5915  6092.33  5938.44  434.734  848.37  853.279  4684.4  4760.38  9883.77  9890.13  2618.18
   386.8421  5537.52  5397.46  448.184  874.178  879.442  4175.96  4243.69  8797.73  8803.27  2411.23
   387.0927  5070.65  4942.22  462.265  901.265  906.87  3741.93  3802.62  7872.21  7877.07  2237.88
   387.3434  4676.4  4557.77  477.019  929.701  935.637  3369.26  3423.89  7078.85  7083.13  2092.41
   387.5940  4342.46  4232.13  492.489  959.562  965.824  3047.44  3096.85  6394.85  6398.65  1970.27
   387.8446  4058.98  3955.68  508.72  990.933  997.52  2768.01  2812.88  5801.86  5805.24  1867.76
   388.0952  3818.01  3720.68  525.765  1023.91  1030.82  2524.1  2565.01  5285.02  5288.05  1781.95
   388.3459  3613.13  3520.86  543.677  1058.59  1065.83  2310.14  2347.58  4832.27  4835  1710.44
   388.5965  3439.12  3351.15  562.517  1095.1  1102.67  2121.56  2155.94  4433.77  4436.24  1651.29
   388.8471  3291.77  3207.4  582.349  1133.54  1141.46  1954.62  1986.29  4081.42  4083.66  1602.93
   389.0977  3167.59  3086.26  603.244  1174.07  1182.34  1806.2  1835.46  3768.53  3770.57  1564.09
   389.3484  3063.76  2984.95  625.279  1216.82  1225.45  1673.72  1700.83  3489.56  3491.43  1533.72
   389.5990  2977.96  2901.22  648.538  1261.96  1270.97  1555.03  1580.21  3239.88  3241.6  1510.98
   389.8496  2908.28  2833.2  673.112  1309.67  1319.07  1448.31  1471.76  3015.61  3017.19  1495.19
   390.1003  2853.17  2779.38  699.102  1360.14  1369.95  1352.04  1373.92  2813.48  2814.94  1485.81
   390.3509  2811.37  2738.52  726.619  1413.58  1423.82  1264.92  1285.38  2630.71  2632.07  1482.39
   390.6015  2781.84  2709.64  755.784  1470.23  1480.92  1185.83  1205.01  2464.96  2466.21  1484.61
   390.8521  2763.79  2691.93  786.73  1530.35  1541.52  1113.85  1131.86  2314.19  2315.36  1492.23
   391.1028  2756.57  2684.78  819.604  1594.22  1605.89  1048.15  1065.09  2176.69  2177.78  1505.07
   391.3534  2759.72  2687.72  854.569  1662.17  1674.36  988.031  1003.99  2050.95  2051.97  1523.02
   391.6040  2772.89  2700.44  891.805  1734.52  1747.28  932.889  947.949  1935.7  1936.66  1546.05
   391.8546  2795.9  2722.74  931.51  1811.69  1825.04  882.195  896.429  1829.82  1830.71  1574.19
   392.1053  2828.66  2754.53  973.908  1894.09  1908.08  835.489  848.961  1732.31  1733.15  1607.5
   392.3559  2871.2  2795.85  1019.24  1982.21  1996.87  792.368  805.136  1642.34  1643.13  1646.13
   392.6065  2923.68  2846.85  1067.79  2076.57  2091.96  752.478  764.595  1559.16  1559.9  1690.27
   392.8571  2986.35  2907.78  1119.87  2177.79  2193.96  715.509  727.02  1482.1  1482.8  1740.17
   393.1078  3059.59  2979  1175.81  2286.54  2303.53  681.184  692.133  1410.59  1411.24  1796.16
   393.3584  3143.9  3060.99  1236.01  2403.56  2421.45  649.26  659.686  1344.11  1344.72  1858.62
   393.6090  3239.91  3154.38  1300.91  2529.72  2548.56  619.521  629.459  1282.2  1282.78  1928.01
   393.8596  3348.38  3259.89  1371  2665.98  2685.85  591.775  601.256  1224.46  1225.01  2004.89
   394.1103  3470.23  3378.44  1446.84  2813.42  2834.42  565.85  574.903  1170.53  1171.04  2089.88
   394.3609  3606.56  3511.07  1529.09  2973.31  2995.51  541.591  550.243  1120.09  1120.56  2183.73
   394.6115  3758.66  3659.06  1618.45  3147.05  3170.56  518.861  527.136  1072.83  1073.28  2287.32
   394.8622  3928.04  3823.88  1715.78  3336.26  3361.21  497.537  505.457  1028.51  1028.92  2401.66
   395.1128  4116.48  4007.24  1822.03  3542.83  3569.34  477.506  485.091  986.882  987.267  2527.9
   395.3634  4326.06  4211.18  1938.31  3768.9  3797.11  458.669  465.938  947.744  948.1  2667.42
   395.6140  4559.22  4438.07  2065.9  4016.95  4047.04  440.935  447.905  910.902  911.228  2821.8
   395.8647  4818.79  4690.67  2206.29  4289.89  4322.04  424.222  430.908  876.184  876.48  2992.9
   396.1153  5108.14  4972.25  2361.21  4591.08  4625.5  408.456  414.871  843.433  843.698  3182.89
   396.3659  5431.21  5286.66  2532.69  4924.49  4961.42  393.569  399.727  812.507  812.742  3394.34
   396.6165  5792.67  5638.42  2723.14  5294.76  5334.48  379.5  385.413  783.279  783.481  3630.24
   396.8672  6198.04  6032.93  2935.38  5707.39  5750.22  366.195  371.873  755.63  755.799  3894.19
   397.1178  6653.93  6476.6  3172.76  6168.92  6215.23  353.603  359.055  729.456  729.589  4190.41
   397.3684  7168.21  6977.11  3439.3  6687.14  6737.36  341.678  346.913  704.658  704.754  4524.01
   397.6190  7750.36  7543.68  3739.82  7271.43  7326.04  330.381  335.404  681.151  681.206  4901.07
   397.8697  8411.84  8187.44  4080.13  7933.06  7992.66  319.673  324.492  658.853  658.865  5328.97
   398.1203  9166.53  8921.93  4467.27  8685.75  8751.02  309.522  314.142  637.695  637.659  5816.65
   398.3709  10031.4  9763.66  4909.83  9546.2  9617.95  299.9  304.323  617.61  617.521  6375.03
   398.6216  11027.3  10732.9  5418.35  10534.9  10614.1  290.779  295.008  598.542  598.395  7017.48
   398.8722  12179.8  11854.6  6005.82  11677.1  11764.9  282.14  286.175  580.44  580.227  7760.51
   399.1228  13520.7  13159.6  6688.32  13004  13101.8  273.963  277.804  563.261  562.972  8624.54
   399.3734  15089.5  14686.5  7485.8  14554.6  14664  266.235  269.879  546.967  546.592  9634.96
   399.6241  16935.5  16483  8423.17  16377  16500.2  258.948  262.388  531.529  531.054  10823.4
   399.8747  19119.7  18608.9  9531.39  18531.7  18671.1  252.096  255.325  516.925  516.334  12229.2
   400.1253  21718.4  21138.1  10848.9  21093.3  21252  245.682  248.687  503.143  502.416  13901.4
   400.3759  24824.9  24161.5  12423  24153.7  24335.4  239.712  242.478  490.179  489.29  15899.8
   400.6266  28551.7  27788.6  14310.5  27823.5  28032.8  234.202  236.707  478.039  476.958  18296.9
   400.8772  33028.7  32145.9  16577  32230.3  32472.8  229.17  231.388  466.738  465.427  21176.1
   401.1278  38395.1  37368.8  19293.1  37511  37793.2  224.642  226.541  456.297  454.713  24626.9
   401.3784  44775.4  43578.4  22521.5  43787.8  44117.3  220.638  222.179  446.733  444.825  28729.4
   401.6291  52228.4  50832.1  26292  51118.8  51503.4  217.161  218.304  438.042  435.755  33521.3
   401.8797  60653.8  59032.2  30554  59405.2  59852.2  214.171  214.879  430.16  427.448  38938.2
   402.1303  69651.6  67789.4  35105.3  68254.1  68767.7  211.547  211.8  422.917  419.75  44722.9
   402.3810  78375.8  76280.3  39518.1  76833.7  77411.9  209.042  208.855  415.98  412.372  50331.7
   402.6316  85513.7  83227.4  43129  83854.2  84485.2  206.285  205.726  408.842  404.874  54920.9
   402.8822  89581.3  87186.2  45187.6  87856.8  88517.9  202.853  202.052  400.939  396.763  57536.5
   403.1328  89552.4  87158.1  45175.4  87833  88494  198.454  197.583  391.872  387.693  57519.1
   403.3835  85433.7  83149.5  43095.7  83789.4  84419.9  193.082  192.312  381.628  377.651  54872.7
   403.6341  78260.1  76167.7  39471.5  76743.1  77320.6  187.015  186.475  370.571  366.95  50262.7
   403.8847  69516.8  67658.2  35053.8  68154  68666.8  180.659  180.416  359.236  356.048  44643.8
   404.1353  60512.1  58894.3  30503.9  59307.8  59754  174.368  174.435  348.091  345.35  38856.8
   404.3860  52086.5  50694  26246.7  51030.5  51414.5  168.37  168.725  337.433  335.109  33442.1
   404.6366  44635.7  43442.4  22482.1  43711.3  44040.2  162.768  163.374  327.395  325.44  28653.8
   404.8872  38257.6  37234.8  19259.8  37446.1  37727.9  157.584  158.397  318.001  316.362  24555
   405.1378  32892  32012.7  16549.2  32176  32418.1  152.795  153.776  309.218  307.844  21106.9
   405.3885  28414  27654.5  14287.2  27778.3  27987.3  148.362  149.476  300.989  299.836  18229.4
   405.6391  24684.6  24024.8  12403.7  24116.1  24297.5  144.242  145.46  293.253  292.284  15833.1
   405.8897  21573.9  20997.2  10832.8  21061.9  21220.3  140.394  141.691  285.954  285.137  13834.3
   406.1404  18969.6  18462.6  9517.84  18505.3  18644.5  136.782  138.14  279.039  278.35  12161.1
   406.3910  16778.6  16330.1  8411.73  16354.7  16477.8  133.376  134.78  272.468  271.886  10753.4
   406.6416  14924.8  14525.9  7476.1  14535.6  14645  130.153  131.588  266.203  265.711  9562.54
   406.8922  13347.2  12990.5  6680.04  12987.8  13085.5  127.09  128.548  260.214  259.799  8549.16
   407.1429  11996.7  11676.1  5998.72  11663.2  11750.9  124.172  125.644  254.476  254.126  7681.73
   407.3935  10833.9  10544.4  5412.22  10522.9  10602  121.383  122.863  248.969  248.674  6934.89
   407.6441  9826.99  9564.38  4904.5  9535.73  9607.45  118.712  120.195  243.672  243.426  6288.26
   407.8947  8950.38  8711.21  4462.62  8676.59  8741.85  116.149  117.631  238.572  238.368  5725.37
   408.1454  8183.28  7964.62  4076.05  7925  7984.61  113.685  115.162  233.654  233.486  5232.85
   408.3960  7508.72  7308.09  3736.23  7264.3  7318.93  111.313  112.782  228.907  228.771  4799.79
   408.6466  6912.79  6728.09  3436.13  6680.81  6731.05  109.027  110.485  224.32  224.212  4417.26
   408.8972  6384.01  6213.45  3169.93  6163.26  6209.61  106.82  108.267  219.884  219.8  4077.88
   409.1479  5912.89  5754.92  2932.85  5702.31  5745.19  104.688  106.121  215.59  215.528  3775.54
   409.3985  5491.5  5344.79  2720.88  5290.18  5329.96  102.626  104.045  211.432  211.389  3505.15
   409.6491  5113.2  4976.6  2530.66  4920.35  4957.34  100.63  102.035  207.402  207.376  3262.45
   409.8997  4772.4  4644.91  2359.38  4587.32  4621.81  98.6979  100.086  203.493  203.483  3043.84
   410.1504  4464.38  4345.13  2204.63  4286.45  4318.67  96.825  98.1972  199.702  199.705  2846.28
   410.4010  4185.12  4073.33  2064.4  4013.8  4043.97  95.0088  96.3642  196.021  196.036  2667.2
   410.6516  3931.19  3826.19  1936.94  3765.99  3794.3  93.2466  94.5849  192.446  192.473  2504.39
   410.9023  3699.65  3600.84  1820.78  3540.14  3566.76  91.5359  92.857  188.973  189.01  2355.96
   411.1529  3487.97  3394.82  1714.64  3333.77  3358.83  89.8744  91.1781  185.597  185.643  2220.29
   411.4035  3293.96  3205.99  1617.4  3144.72  3168.36  88.26  89.5463  182.315  182.369  2095.96
   411.6541  3115.73  3032.52  1528.12  2971.13  2993.46  86.6906  87.9595  179.122  179.184  1981.76
   411.9048  2951.61  2872.79  1445.96  2811.38  2832.5  85.1644  86.416  176.016  176.084  1876.63
   412.1554  2800.17  2725.4  1370.18  2664.04  2684.06  83.6797  84.9141  172.992  173.067  1779.64
   412.4060  2660.15  2589.11  1300.15  2527.89  2546.88  82.2348  83.4521  170.048  170.129  1689.97
   412.6566  2530.42  2462.85  1235.31  2401.82  2419.86  80.8282  82.0285  167.181  167.267  1606.92
   412.9073  2410.01  2345.66  1175.16  2284.87  2302.04  79.4584  80.642  164.388  164.479  1529.84
   413.1579  2298.05  2236.69  1119.26  2176.19  2192.54  78.1242  79.2911  161.667  161.762  1458.19
   413.4085  2193.77  2135.2  1067.23  2075.02  2090.61  76.824  77.9746  159.014  159.113  1391.47
   413.6591  2096.48  2040.51  1018.71  1980.7  1995.58  75.5568  76.6912  156.427  156.53  1329.23
   413.9098  2005.58  1952.04  973.412  1892.62  1906.84  74.3214  75.4399  153.905  154.011  1271.09
   414.1604  1920.52  1869.24  931.046  1810.25  1823.85  73.1167  74.2194  151.445  151.554  1216.7
   414.4110  1840.8  1791.66  891.369  1733.11  1746.12  71.9415  73.0288  149.044  149.156  1165.74
   414.6617  1766  1718.85  854.16  1660.76  1673.24  70.795  71.867  146.702  146.816  1117.93
   414.9123  1695.71  1650.44  819.22  1592.83  1604.79  69.6761  70.7331  144.415  144.532  1073.01
   415.1629  1629.58  1586.08  786.368  1528.95  1540.44  68.5839  69.6261  142.183  142.302  1030.76
   415.4135  1567.29  1525.46  755.443  1468.83  1479.86  67.5175  68.5453  140.003  140.124  990.975
   415.6642  1508.55  1468.28  726.297  1412.16  1422.76  66.4762  67.4896  137.873  137.997  953.461
   415.9148  1453.08  1414.3  698.797  1358.69  1368.89  65.459  66.4585  135.793  135.919  918.05
   416.1654  1400.66  1363.27  672.823  1308.19  1318.01  64.4653  65.451  133.761  133.888  884.589
   416.4160  1351.06  1315  648.264  1260.44  1269.9  63.4944  64.4665  131.775  131.903  852.936
   416.6667  1304.08  1269.28  625.019  1215.24  1224.37  62.5454  63.5042  129.833  129.963  822.964
   416.9173  1259.55  1225.93  602.997  1172.43  1181.23  61.6177  62.5635  127.935  128.066  794.556
   417.1679  1217.29  1184.8  582.114  1131.82  1140.32  60.7107  61.6437  126.079  126.211  767.605
   417.4185  1177.15  1145.73  562.293  1093.29  1101.49  59.8238  60.7442  124.264  124.397  742.013
   417.6692  1138.99  1108.59  543.463  1056.68  1064.61  58.9563  59.8643  122.488  122.623  717.69
   417.9198  1102.68  1073.25  525.56  1021.87  1029.54  58.1077  59.0036  120.751  120.887  694.553
   418.1704  1068.11  1039.6  508.524  988.744  996.166  57.2775  58.1614  119.051  119.188  672.527
   418.4211  1035.16  1007.53  492.3  957.2  964.385  56.465  57.3372  117.388  117.525  651.541
   418.6717  1003.74  976.951  476.838  927.137  934.096  55.6698  56.5305  115.759  115.898  631.531
   418.9223  973.747  947.76  462.091  898.464  905.207  54.8914  55.7408  114.165  114.304  612.437
   419.1729  945.102  919.879  448.015  871.096  877.633  54.1293  54.9676  112.605  112.744  594.203
   419.4236  917.721  893.23  434.57  844.956  851.297  53.3831  54.2105  111.076  111.216  576.78
   419.6742  891.533  867.741  421.72  819.971  826.124  52.6522  53.4689  109.579  109.72  560.119
   419.9248  866.468  843.345  409.43  796.076  802.049  51.9364  52.7426  108.113  108.254  544.176
   420.1754  842.463  819.98  397.668  773.206  779.008  51.2351  52.031  106.676  106.818  528.912
   420.4261  819.458  797.589  386.404  751.306  756.943  50.548  51.3338  105.269  105.411  514.286
   420.6767  797.398  776.118  375.611  730.321  735.8  49.8747  50.6505  103.889  104.032  500.266
   420.9273  776.233  755.517  365.262  710.2  715.528  49.2148  49.9808  102.537  102.68  486.816
   421.1779  755.913  735.74  355.335  690.898  696.081  48.568  49.3244  101.212  101.355  473.908
   421.4286  736.394  716.742  345.805  672.369  677.413  47.9339  48.6809  99.9122  100.056  461.511
   421.6792  717.635  698.483  336.653  654.575  659.485  47.3122  48.0499  98.6381  98.7822  449.599
   421.9298  699.596  680.926  327.859  637.476  642.258  46.7025  47.4311  97.3886  97.533  438.148
   422.1805  682.241  664.033  319.404  621.037  625.695  46.1046  46.8243  96.1632  96.3078  427.133
   422.4311  665.535  647.773  311.271  605.224  609.763  45.5181  46.2291  94.9612  95.106  416.533
   422.6817  649.446  632.113  303.444  590.006  594.431  44.9428  45.6451  93.7819  93.927  406.326
   422.9323  633.943  617.024  295.908  575.354  579.669  44.3784  45.0722  92.6249  92.7701  396.495
   423.1830  619  602.479  288.649  561.24  565.449  43.8246  44.51  91.4896  91.635  387.02
   423.4336  604.588  588.452  281.653  547.638  551.745  43.2811  43.9583  90.3753  90.5209  377.884
   423.6842  590.682  574.917  274.908  534.523  538.532  42.7476  43.4169  89.2817  89.4274  369.071
   423.9348  577.26  561.853  268.402  521.874  525.787  42.224  42.8853  88.2082  88.354  360.567
   424.1855  564.298  549.237  262.124  509.667  513.488  41.71  42.3636  87.1543  87.3002  352.356
   424.4361  551.776  537.049  256.063  497.882  501.615  41.2054  41.8512  86.1195  86.2655  344.426
   424.6867  539.674  525.27  250.209  486.501  490.148  40.7098  41.3482  85.1034  85.2494  336.764
   424.9373  527.974  513.881  244.554  475.505  479.07  40.2232  40.8542  84.1055  84.2516  329.357
   425.1880  516.656  502.865  239.088  464.877  468.362  39.7452  40.369  83.1254  83.2715  322.195
   425.4386  505.706  492.207  233.802  454.601  458.009  39.2758  39.8924  82.1627  82.3088  315.266
   425.6892  495.106  481.89  228.69  444.661  447.994  38.8146  39.4242  81.2169  81.363  308.561
   425.9398  484.843  471.9  223.744  435.043  438.304  38.3615  38.9642  80.2876  80.4338  302.071
   426.1905  474.901  462.224  218.956  425.734  428.925  37.9163  38.5122  79.3745  79.5207  295.785
   426.4411  465.268  452.848  214.319  416.719  419.843  37.4789  38.0681  78.4773  78.6234  289.696
   426.6917  455.931  443.759  209.829  407.988  411.045  37.049  37.6316  77.5954  77.7415  283.795
   426.9424  446.877  434.947  205.477  399.527  402.522  36.6264  37.2026  76.7286  76.8747  278.075
   427.1930  438.095  426.399  201.26  391.327  394.26  36.2111  36.7809  75.8766  76.0226  272.527
   427.4436  429.575  418.106  197.171  383.377  386.249  35.8027  36.3663  75.0389  75.1849  267.147
   427.6942  421.305  410.057  193.205  375.665  378.48  35.4013  35.9587  74.2154  74.3613  261.925
   427.9449  413.277  402.243  189.357  368.184  370.943  35.0066  35.5579  73.4056  73.5514  256.857
   428.1955  405.48  394.654  185.623  360.924  363.628  34.6185  35.1638  72.6092  72.755  251.937
   428.4461  397.907  387.282  181.998  353.876  356.527  34.2367  34.7762  71.826  71.9718  247.158
   428.6967  390.547  380.119  178.478  347.033  349.632  33.8613  34.395  71.0557  71.2014  242.516
   428.9474  383.394  373.156  175.06  340.385  342.935  33.492  34.0201  70.298  70.4436  238.005
   429.1980  376.439  366.387  171.738  333.927  336.428  33.1288  33.6512  69.5526  69.6981  233.619
   429.4486  369.676  359.803  168.51  327.65  330.105  32.7714  33.2883  68.8192  68.9646  229.356
   429.6992  363.097  353.4  165.372  321.549  323.958  32.4198  32.9313  68.0976  68.2429  225.209
   429.9499  356.695  347.168  162.321  315.616  317.98  32.0738  32.58  67.3876  67.5328  221.175
   430.2005  350.464  341.104  159.353  309.846  312.167  31.7333  32.2342  66.6888  66.8339  217.25
   430.4511  344.399  335.2  156.466  304.233  306.511  31.3983  31.894  66.0011  66.1461  213.43
   430.7018  338.492  329.451  153.656  298.77  301.008  31.0685  31.5591  65.3242  65.4691  209.711
   430.9524  332.74  323.851  150.922  293.453  295.651  30.7439  31.2295  64.6579  64.8027  206.089
   431.2030  327.135  318.396  148.259  288.277  290.436  30.4243  30.905  64.002  64.1466  202.561
   431.4536  321.674  313.081  145.667  283.236  285.357  30.1097  30.5855  63.3562  63.5008  199.125
   431.7043  316.351  307.9  143.142  278.326  280.41  29.8  30.271  62.7204  62.8648  195.776
   431.9549  311.162  302.849  140.682  273.543  275.591  29.4951  29.9613  62.0943  62.2386  192.512
   432.2055  306.102  297.923  138.284  268.881  270.895  29.1947  29.6564  61.4778  61.6219  189.329
   432.4561  301.166  293.119  135.948  264.338  266.317  28.899  29.356  60.8706  61.0146  186.226
   432.7068  296.352  288.433  133.67  259.909  261.855  28.6077  29.0603  60.2726  60.4165  183.2
   432.9574  291.654  283.861  131.448  255.59  257.504  28.3209  28.7689  59.6836  59.8273  180.247
   433.2080  287.07  279.398  129.282  251.378  253.26  28.0383  28.4819  59.1033  59.2469  177.367
   433.4586  282.594  275.042  127.169  247.269  249.12  27.7599  28.1992  58.5317  58.6752  174.555
   433.7093  278.225  270.789  125.107  243.26  245.081  27.4857  27.9207  57.9685  58.1118  171.811
   433.9599  273.958  266.636  123.094  239.347  241.139  27.2155  27.6463  57.4137  57.5568  169.132
   434.2105  269.791  262.58  121.13  235.528  237.291  26.9493  27.376  56.8669  57.0099  166.515
   434.4612  265.72  258.617  119.213  231.8  233.535  26.6869  27.1095  56.3281  56.471  163.96
   434.7118  261.742  254.746  117.34  228.159  229.867  26.4284  26.847  55.7971  55.9399  161.463
   434.9624  257.855  250.962  115.512  224.604  226.285  26.1736  26.5882  55.2738  55.4164  159.024
   435.2130  254.055  247.263  113.725  221.13  222.785  25.9225  26.3332  54.758  54.9004  156.641
   435.4637  250.341  243.648  111.98  217.737  219.367  25.675  26.0818  54.2496  54.3918  154.311
   435.7143  246.709  240.112  110.275  214.421  216.026  25.431  25.8341  53.7484  53.8905  152.033
   435.9649  243.157  236.655  108.608  211.181  212.761  25.1905  25.5898  53.2543  53.3962  149.806
   436.2155  239.682  233.273  106.979  208.013  209.569  24.9534  25.349  52.7671  52.9089  147.629
   436.4662  236.284  229.965  105.386  204.916  206.449  24.7196  25.1115  52.2868  52.4284  145.498
   436.7168  232.958  226.728  103.828  201.887  203.398  24.489  24.8774  51.8131  51.9546  143.415
   436.9674  229.704  223.56  102.305  198.925  200.413  24.2617  24.6465  51.3461  51.4874  141.376
   437.2180  226.518  220.459  100.815  196.028  197.494  24.0376  24.4189  50.8855  51.0266  139.381
   437.4687  223.4  217.424  99.357  193.193  194.639  23.8165  24.1944  50.4312  50.5722  137.428
   437.7193  220.347  214.453  97.9306  190.42  191.844  23.5985  23.9729  49.9832  50.124  135.517
   437.9699  217.357  211.543  96.5346  187.705  189.11  23.3835  23.7545  49.5413  49.6819  133.645
   438.2206  214.43  208.693  95.1683  185.049  186.433  23.1713  23.5391  49.1053  49.2458  131.813
   438.4712  211.562  205.901  93.8307  182.448  183.813  22.9621  23.3266  48.6753  48.8156  130.018
   438.7218  208.752  203.166  92.5211  179.902  181.247  22.7557  23.1169  48.251  48.3912  128.261
   438.9724  205.999  200.487  91.2387  177.408  178.735  22.552  22.9101  47.8324  47.9724  126.539
   439.2231  203.302  197.861  89.9828  174.966  176.275  22.3511  22.706  47.4194  47.5592  124.852
   439.4737  200.658  195.288  88.7527  172.574  173.865  22.1529  22.5047  47.0118  47.1515  123.198
   439.7243  198.066  192.765  87.5475  170.231  171.504  21.9572  22.306  46.6097  46.7492  121.578
   439.9749  195.526  190.292  86.3668  167.935  169.191  21.7642  22.1099  46.2128  46.3521  119.99
   440.2256  193.034  187.867  85.2097  165.686  166.925  21.5737  21.9164  45.8211  45.9603  118.433
   440.4762  190.592  185.489  84.0758  163.481  164.703  21.3857  21.7254  45.4345  45.5735  116.907
   440.7268  188.196  183.157  82.9643  161.32  162.526  21.2001  21.537  45.053  45.1918  115.41
   440.9774  185.846  180.87  81.8746  159.201  160.391  21.017  21.3509  44.6763  44.815  113.943
   441.2281  183.541  178.626  80.8063  157.124  158.299  20.8362  21.1673  44.3045  44.443  112.503
   441.4787  181.279  176.424  79.7588  155.087  156.247  20.6577  20.986  43.9375  44.0758  111.091
   441.7293  179.059  174.264  78.7315  153.089  154.234  20.4815  20.8071  43.5751  43.7133  109.705
   441.9799  176.881  172.144  77.7239  151.13  152.26  20.3076  20.6304  43.2174  43.3554  108.346
   442.2306  174.744  170.063  76.7355  149.209  150.324  20.1358  20.456  42.8641  43.0019  107.012
   442.4812  172.645  168.021  75.7658  147.323  148.425  19.9663  20.2837  42.5153  42.653  105.703
   442.7318  170.585  166.016  74.8144  145.473  146.561  19.7988  20.1137  42.1709  42.3084  104.418
   442.9825  168.563  164.047  73.8808  143.658  144.732  19.6335  19.9457  41.8308  41.9681  103.156
   443.2331  166.577  162.113  72.9645  141.876  142.937  19.4702  19.7799  41.4948  41.632  101.918
   443.4837  164.626  160.215  72.0652  140.128  141.175  19.309  19.6161  41.1631  41.3001  100.702
   443.7343  162.71  158.35  71.1824  138.411  139.446  19.1497  19.4544  40.8354  40.9722  99.5074
   443.9850  160.829  156.519  70.3157  136.726  137.748  18.9924  19.2946  40.5118  40.6484  98.3345
   444.2356  158.98  154.719  69.4647  135.071  136.081  18.8371  19.1368  40.1921  40.3286  97.1825
   444.4862  157.164  152.951  68.6291  133.447  134.444  18.6836  18.9809  39.8763  40.0126  96.0509
   444.7368  155.379  151.214  67.8085  131.851  132.836  18.532  18.827  39.5643  39.7005  94.9391
   444.9875  153.625  149.507  67.0025  130.284  131.257  18.3823  18.6749  39.2561  39.3921  93.8468
   445.2381  151.902  147.829  66.2107  128.744  129.707  18.2344  18.5246  38.9516  39.0874  92.7734
   445.4887  150.208  146.18  65.4329  127.232  128.183  18.0882  18.3761  38.6508  38.7864  91.7185
   445.7393  148.542  144.559  64.6688  125.746  126.686  17.9438  18.2294  38.3535  38.4889  90.6818
   445.9900  146.905  142.965  63.9179  124.286  125.215  17.8011  18.0845  38.0597  38.195  89.6627
   446.2406  145.295  141.398  63.18  122.851  123.769  17.6601  17.9413  37.7695  37.9046  88.6609
   446.4912  143.712  139.858  62.4548  121.441  122.349  17.5208  17.7998  37.4826  37.6176  87.6759
   446.7419  142.156  138.342  61.7421  120.055  120.953  17.3831  17.6599  37.1991  37.3339  86.7075
   446.9925  140.625  136.852  61.0414  118.693  119.58  17.247  17.5217  36.9189  37.0535  85.7553
   447.2431  139.119  135.387  60.3526  117.354  118.231  17.1126  17.3851  36.642  36.7765  84.8188
   447.4937  137.638  133.945  59.6754  116.037  116.904  16.9797  17.2501  36.3683  36.5026  83.8977
   447.7444  136.181  132.526  59.0096  114.742  115.6  16.8483  17.1167  36.0978  36.2319  82.9918
   447.9950  134.747  131.131  58.3548  113.469  114.317  16.7184  16.9848  35.8303  35.9643  82.1006
   448.2456  133.336  129.758  57.7108  112.217  113.056  16.5901  16.8544  35.566  35.6997  81.2238
   448.4962  131.948  128.406  57.0775  110.986  111.815  16.4632  16.7255  35.3046  35.4382  80.3612
   448.7469  130.582  127.077  56.4545  109.774  110.594  16.3378  16.5981  35.0462  35.1797  79.5124
   448.9975  129.237  125.768  55.8416  108.583  109.394  16.2138  16.4722  34.7908  34.924  78.6771
   449.2481  127.914  124.48  55.2387  107.41  108.213  16.0912  16.3476  34.5382  34.6713  77.8551
   449.4987  126.611  123.212  54.6455  106.257  107.051  15.97  16.2245  34.2884  34.4214  77.0461
   449.7494  125.329  121.963  54.0617  105.122  105.907  15.8502  16.1028  34.0415  34.1743  76.2497
   450.0000  124.066  120.734  53.4873  104.005  104.782  15.7317  15.9824  33.7973  33.9299  75.4658