File: examples/mos2-example1/ref/raman_spectra4.dat
#Raman spectra
#Laser energy   2.78 eV
#Raman shift (cm-1), Raman Spectra (XX,YY,ZZ,s+s+,s-s-,XY,YX,s+s-,s-s+,nonpol)
   350.0000  191.793  184.37  39.4783  60.7865  61.1766  120.366  122.126  248.212  248.48  77.6599
   350.2506  194.291  186.777  39.8539  61.3655  61.759  122.207  123.994  251.939  252.205  78.6631
   350.5013  196.841  189.235  40.2349  61.9527  62.3498  124.09  125.905  255.752  256.017  79.6881
   350.7519  199.446  191.745  40.6215  62.5485  62.9491  126.017  127.861  259.653  259.917  80.7357
   351.0025  202.106  194.308  41.0136  63.1528  63.5571  127.99  129.862  263.647  263.909  81.8064
   351.2531  204.823  196.927  41.4114  63.766  64.1739  130.009  131.911  267.734  267.995  82.9009
   351.5038  207.6  199.602  41.815  64.3882  64.7998  132.076  134.008  271.919  272.179  84.0199
   351.7544  210.436  202.336  42.2246  65.0195  65.4349  134.193  136.156  276.204  276.463  85.1642
   352.0050  213.336  205.131  42.6402  65.6601  66.0793  136.361  138.356  280.593  280.85  86.3345
   352.2556  216.299  207.987  43.0619  66.3103  66.7333  138.582  140.61  285.089  285.345  87.5317
   352.5063  219.329  210.908  43.49  66.9702  67.3971  140.857  142.919  289.696  289.95  88.7565
   352.7569  222.428  213.894  43.9244  67.6399  68.0708  143.19  145.285  294.417  294.669  90.0098
   353.0075  225.597  216.949  44.3654  68.3198  68.7547  145.58  147.711  299.256  299.506  91.2925
   353.2581  228.839  220.074  44.8131  69.01  69.449  148.031  150.198  304.217  304.466  92.6055
   353.5088  232.156  223.271  45.2676  69.7107  70.1538  150.544  152.748  309.303  309.551  93.9499
   353.7594  235.55  226.544  45.729  70.4222  70.8694  153.122  155.363  314.521  314.766  95.3265
   354.0100  239.024  229.893  46.1975  71.1446  71.596  155.766  158.046  319.873  320.117  96.7365
   354.2607  242.581  233.322  46.6733  71.8781  72.3338  158.48  160.8  325.364  325.607  98.181
   354.5113  246.224  236.834  47.1564  72.6231  73.0831  161.264  163.625  331  331.241  99.661
   354.7619  249.954  240.431  47.6471  73.3797  73.8442  164.123  166.526  336.786  337.024  101.178
   355.0125  253.776  244.116  48.1455  74.1483  74.6171  167.059  169.505  342.726  342.963  102.733
   355.2632  257.692  247.891  48.6517  74.9289  75.4023  170.074  172.564  348.827  349.062  104.327
   355.5138  261.705  251.761  49.166  75.722  76.1999  173.171  175.706  355.094  355.327  105.962
   355.7644  265.819  255.728  49.6884  76.5277  77.0103  176.353  178.935  361.534  361.764  107.638
   356.0150  270.037  259.796  50.2192  77.3464  77.8336  179.624  182.254  368.152  368.38  109.359
   356.2657  274.364  263.968  50.7586  78.1783  78.6702  182.986  185.666  374.955  375.181  111.124
   356.5163  278.802  268.248  51.3067  79.0237  79.5204  186.444  189.175  381.951  382.175  112.937
   356.7669  283.356  272.64  51.8637  79.8829  80.3845  190.001  192.784  389.146  389.368  114.797
   357.0175  288.03  277.148  52.4298  80.7562  81.2627  193.66  196.497  396.548  396.768  116.708
   357.2682  292.828  281.776  53.0053  81.6439  82.1554  197.426  200.318  404.166  404.383  118.671
   357.5188  297.756  286.529  53.5902  82.5463  83.0629  201.302  204.251  412.007  412.222  120.688
   357.7694  302.817  291.411  54.1849  83.4638  83.9855  205.294  208.302  420.081  420.293  122.761
   358.0201  308.017  296.427  54.7896  84.3967  84.9236  209.406  212.473  428.396  428.606  124.892
   358.2707  313.361  301.582  55.4044  85.3453  85.8774  213.642  216.772  436.963  437.17  127.083
   358.5213  318.855  306.882  56.0297  86.3101  86.8475  218.007  221.202  445.792  445.996  129.337
   358.7719  324.505  312.332  56.6655  87.2913  87.8341  222.508  225.769  454.893  455.095  131.656
   359.0226  330.316  317.938  57.3123  88.2893  88.8376  227.15  230.478  464.278  464.477  134.043
   359.2732  336.295  323.707  57.9702  89.3046  89.8584  231.937  235.337  473.959  474.154  136.5
   359.5238  342.449  329.644  58.6394  90.3375  90.8969  236.878  240.35  483.948  484.14  139.031
   359.7744  348.785  335.758  59.3204  91.3885  91.9535  241.978  245.525  494.258  494.446  141.638
   360.0251  355.311  342.054  60.0132  92.4579  93.0286  247.244  250.868  504.903  505.088  144.325
   360.2757  362.033  348.541  60.7183  93.5462  94.1228  252.684  256.388  515.898  516.08  147.094
   360.5263  368.962  355.227  61.4358  94.6539  95.2363  258.305  262.092  527.259  527.437  149.95
   360.7769  376.105  362.12  62.1661  95.7814  96.3698  264.115  267.987  539.001  539.176  152.896
   361.0276  383.471  369.229  62.9096  96.9292  97.5236  270.124  274.084  551.142  551.313  155.936
   361.2782  391.071  376.564  63.6664  98.0978  98.6983  276.339  280.391  563.701  563.868  159.074
   361.5288  398.915  384.134  64.437  99.2876  99.8943  282.771  286.917  576.696  576.859  162.314
   361.7794  407.013  391.95  65.2216  100.499  101.112  289.43  293.674  590.148  590.306  165.662
   362.0301  415.377  400.023  66.0207  101.733  102.353  296.326  300.671  604.078  604.232  169.122
   362.2807  424.019  408.365  66.8345  102.99  103.616  303.471  307.921  618.51  618.659  172.699
   362.5313  432.952  416.988  67.6634  104.271  104.903  310.877  315.436  633.468  633.612  176.399
   362.7820  442.19  425.906  68.5079  105.575  106.214  318.557  323.229  648.977  649.117  180.227
   363.0326  451.747  435.133  69.3682  106.904  107.55  326.525  331.314  665.066  665.2  184.19
   363.2832  461.639  444.683  70.2449  108.259  108.911  334.794  339.705  681.762  681.89  188.295
   363.5338  471.882  454.572  71.1383  109.639  110.298  343.382  348.419  699.097  699.22  192.547
   363.7845  482.493  464.817  72.0488  111.046  111.712  352.303  357.471  717.104  717.221  196.955
   364.0351  493.491  475.436  72.9769  112.481  113.153  361.575  366.88  735.818  735.929  201.527
   364.2857  504.895  486.447  73.923  113.943  114.623  371.217  376.664  755.277  755.381  206.271
   364.5363  516.726  497.872  74.8877  115.435  116.121  381.25  386.844  775.52  775.617  211.196
   364.7870  529.007  509.732  75.8713  116.955  117.649  391.693  397.441  796.59  796.68  216.311
   365.0376  541.761  522.049  76.8745  118.506  119.207  402.571  408.479  818.532  818.614  221.626
   365.2882  555.014  534.848  77.8976  120.089  120.796  413.907  419.982  841.395  841.47  227.154
   365.5388  568.793  548.156  78.9413  121.703  122.418  425.727  431.975  865.232  865.298  232.904
   365.7895  583.127  562  80.0061  123.35  124.072  438.059  444.489  890.098  890.155  238.89
   366.0401  598.047  576.412  81.0926  125.031  125.76  450.933  457.553  916.053  916.101  245.126
   366.2907  613.587  591.422  82.2014  126.747  127.483  464.382  471.199  943.161  943.2  251.624
   366.5414  629.782  607.067  83.333  128.498  129.242  478.439  485.463  971.491  971.52  258.402
   366.7920  646.671  623.382  84.4881  130.286  131.037  493.142  500.383  1001.12  1001.14  265.475
   367.0426  664.296  640.409  85.6675  132.112  132.871  508.532  515.999  1032.12  1032.13  272.861
   367.2932  682.7  658.19  86.8716  133.976  134.743  524.65  532.355  1064.59  1064.59  280.58
   367.5439  701.933  676.772  88.1013  135.881  136.654  541.545  549.498  1098.61  1098.6  288.653
   367.7945  722.046  696.205  89.3573  137.826  138.607  559.265  567.479  1134.3  1134.27  297.101
   368.0451  743.094  716.543  90.6404  139.814  140.603  577.867  586.355  1171.74  1171.7  305.949
   368.2957  765.139  737.846  91.9512  141.845  142.641  597.409  606.184  1211.08  1211.02  315.223
   368.5464  788.247  760.176  93.2907  143.922  144.725  617.954  627.032  1252.42  1252.34  324.951
   368.7970  812.488  783.602  94.6596  146.044  146.855  639.574  648.97  1295.91  1295.82  335.166
   369.0476  837.94  808.201  96.0589  148.214  149.032  662.343  672.074  1341.71  1341.6  345.899
   369.2982  864.688  834.052  97.4894  150.433  151.258  686.344  696.428  1389.98  1389.85  357.188
   369.5489  892.822  861.244  98.952  152.703  153.534  711.667  722.125  1440.89  1440.74  369.072
   369.7995  922.444  889.876  100.448  155.024  155.863  738.412  749.263  1494.64  1494.47  381.596
   370.0501  953.661  920.051  101.978  157.4  158.245  766.684  777.952  1551.45  1551.25  394.806
   370.3008  986.595  951.887  103.543  159.831  160.682  796.604  808.311  1611.55  1611.33  408.754
   370.5514  1021.37  985.509  105.144  162.319  163.177  828.299  840.473  1675.2  1674.96  423.499
   370.8020  1058.15  1021.06  106.783  164.867  165.73  861.913  874.583  1742.69  1742.41  439.102
   371.0526  1097.07  1058.69  108.461  167.475  168.344  897.603  910.798  1814.32  1814.01  455.633
   371.3033  1138.31  1098.56  110.178  170.147  171.021  935.542  949.296  1890.44  1890.1  473.168
   371.5539  1182.07  1140.87  111.936  172.883  173.762  975.922  990.271  1971.43  1971.06  491.792
   371.8045  1228.56  1185.82  113.737  175.687  176.57  1018.96  1033.94  2057.72  2057.3  511.598
   372.0551  1278.01  1233.64  115.581  178.561  179.448  1064.88  1080.54  2149.76  2149.3  532.689
   372.3058  1330.69  1284.59  117.471  181.507  182.397  1113.95  1130.33  2248.08  2247.58  555.182
   372.5564  1386.89  1338.94  119.407  184.528  185.42  1166.47  1183.63  2353.27  2352.72  579.204
   372.8070  1446.94  1397.01  121.392  187.626  188.519  1222.76  1240.75  2465.96  2465.35  604.899
   373.0576  1511.19  1459.15  123.426  190.804  191.697  1283.19  1302.07  2586.89  2586.22  632.429
   373.3083  1580.07  1525.76  125.512  194.065  194.958  1348.17  1368  2716.86  2716.13  661.973
   373.5589  1654.02  1597.29  127.651  197.412  198.303  1418.17  1439.03  2856.8  2855.99  693.736
   373.8095  1733.56  1674.23  129.845  200.848  201.736  1493.7  1515.67  3007.73  3006.85  727.946
   374.0602  1819.29  1757.15  132.097  204.377  205.26  1575.36  1598.54  3170.84  3169.87  764.864
   374.3108  1911.85  1846.7  134.407  208.003  208.879  1663.83  1688.31  3347.44  3346.38  804.784
   374.5614  2012.02  1943.6  136.779  211.729  212.597  1759.87  1785.77  3539.05  3537.88  848.044
   374.8120  2120.64  2048.68  139.213  215.559  216.416  1864.37  1891.8  3747.4  3746.11  895.026
   375.0627  2238.7  2162.9  141.713  219.498  220.341  1978.32  2007.43  3974.46  3973.05  946.172
   375.3133  2367.33  2287.35  144.281  223.55  224.376  2102.88  2133.84  4222.52  4220.96  1001.99
   375.5639  2507.84  2423.3  146.92  227.72  228.525  2239.41  2272.37  4494.19  4492.47  1063.06
   375.8145  2661.72  2572.19  149.631  232.014  232.794  2389.44  2424.61  4792.53  4790.62  1130.07
   376.0652  2830.74  2735.73  152.418  236.437  237.188  2554.78  2592.39  5121.07  5118.95  1203.8
   376.3158  3016.93  2915.9  155.284  240.995  241.711  2737.55  2777.86  5483.94  5481.59  1285.17
   376.5664  3222.68  3115  158.231  245.695  246.37  2940.23  2983.52  5885.99  5883.38  1375.28
   376.8170  3450.81  3335.76  161.262  250.544  251.171  3165.75  3212.37  6332.95  6330.03  1475.4
   377.0677  3704.64  3581.4  164.382  255.55  256.12  3417.58  3467.91  6831.56  6828.29  1587.05
   377.3183  3988.12  3855.74  167.593  260.722  261.225  3699.85  3754.34  7389.89  7386.21  1712.03
   377.5689  4305.96  4163.35  170.898  266.07  266.494  4017.52  4076.69  8017.55  8013.4  1852.5
   377.8195  4663.83  4509.7  174.303  271.603  271.935  4376.53  4441  8726.1  8721.41  2011.07
   378.0702  5068.54  4901.4  177.81  277.335  277.557  4784.11  4854.59  9529.54  9524.21  2190.89
   378.3208  5528.38  5346.47  181.423  283.279  283.372  5249.03  5326.36  10444.8  10438.8  2395.77
   378.5714  6053.45  5854.68  185.148  289.451  289.392  5782.02  5867.2  11492.7  11485.8  2630.41
   378.8221  6656.12  6438.01  188.989  295.868  295.628  6396.26  6490.5  12698.7  12690.7  2900.57
   379.0727  7351.64  7111.23  192.95  302.552  302.098  7108.08  7212.81  14094.2  14084.9  3213.35
   379.3233  8158.9  7892.63  197.037  309.528  308.818  7937.7  8054.66  15718.2  15707.4  3577.59
   379.5739  9101.37  8804.92  201.256  316.823  315.808  8910.28  9041.59  17619.1  17606.4  4004.27
   379.8246  10208.3  9876.39  205.61  324.474  323.091  10057.2  10205.4  19857.3  19842.4  4507.08
   380.0752  11516  11142.3  210.108  332.522  330.696  11417.5  11585.8  22508  22490.4  5103.04
   380.3258  13069.7  12646.3  214.755  341.017  338.655  13039.3  13231.5  25664  25643.1  5813.16
   380.5764  14924.9  14442.2  219.558  350.017  347.005  14981.3  15202.1  29439.2  29414.2  6663.02
   380.8271  17148.2  16594.4  224.523  359.592  355.79  17312.6  17567.8  33968.7  33938.8  7682.82
   381.0777  19816.7  19177.8  229.659  369.817  365.06  20110.4  20406.8  39406.3  39370.5  8906.21
   381.3283  23013  22271.9  234.973  380.771  374.862  23451  23796.7  45909.8  45867.1  10366.5
   381.5789  26810.3  25948  240.473  392.514  385.238  27388.8  27792.6  53606  53555.9  12087.3
   381.8296  31242.9  30239  246.169  405.059  396.203  31915.2  32385.7  62519.4  62462.1  14065.1
   382.0802  36249.6  35085.9  252.07  418.316  407.713  36890.3  37434.2  72448.4  72385.7  16238.7
   382.3308  41591.1  40256.8  258.184  432.016  419.627  41956.3  42574.8  82795.5  82731.9  18452.1
   382.5815  46762.8  45263.2  264.523  445.665  431.673  46481.7  47166.9  92427  92370.3  20429.8
   382.8321  50984.9  49350.3  271.097  458.588  443.479  49637.7  50369.3  99740.2  99699.9  21810.3
   383.0827  53379.5  51668.1  277.917  470.158  454.692  50682.4  51429.4  103125  103109  22270.1
   383.3333  53345.3  51634.6  284.994  480.11  465.16  49338.7  50065.8  101714  101725  21688.2
   383.5840  50894.4  49261.5  292.343  488.707  475.032  45960.1  46637.3  95878.8  95910.7  20218.7
   383.8346  46645.3  45147.6  299.978  496.601  484.684  41321.4  41930.2  87009.4  87053.9  18199.7
   384.0852  41478.1  40145  307.914  504.51  494.535  36237.6  36771.5  76792.2  76840.8  15986.7
   384.3358  36164.4  35000.6  316.169  512.99  504.917  31305.4  31766.6  66586.1  66632.9  13840
   384.5865  31198.3  30192.7  324.761  522.368  516.032  26850.2  27245.7  57203.2  57245.3  11901.5
   384.8371  26811.3  25945.5  333.708  532.789  527.978  22990.3  23329  48989.6  49025.8  10222.9
   385.0877  23059.9  22313.5  343.029  544.291  540.792  19723.1  20013.6  41997.3  42027.8  8803.07
   385.3383  19907.7  19261.6  352.746  556.861  554.481  16989.5  17239.7  36130.9  36156.3  7616.23
   385.5890  17280.7  16718.1  362.881  570.467  569.043  14712.3  14929  31239.7  31260.8  6628.72
   385.8396  15096.4  14603.2  373.459  585.083  584.478  12815.1  13003.8  27165.7  27183.2  5807.21
   386.0902  13278.2  12842.7  384.505  600.69  600.793  11229.8  11395.2  23764.9  23779.5  5122.08
   386.3409  11759.8  11372.4  396.047  617.281  618.004  9899.39  10045.1  20914.7  20926.8  4548.39
   386.5915  10486.2  10139.1  408.115  634.86  636.132  8776.83  8906.03  18513.5  18523.7  4065.68
   386.8421  9412.65  9099.43  420.743  653.446  655.21  7824.19  7939.35  16479.1  16487.8  3657.41
   387.0927  8503.08  8218.49  433.963  673.065  675.276  7010.98  7114.15  14745.5  14752.9  3310.32
   387.3434  7728.57  7468.28  447.814  693.754  696.375  6312.72  6405.6  13259.4  13265.7  3013.73
   387.5940  7065.92  6826.34  462.337  715.557  718.562  5709.75  5793.74  11978.1  11983.5  2759.1
   387.8446  6496.47  6274.6  477.576  738.529  741.895  5186.18  5262.45  10867.3  10872  2539.52
   388.0952  6005.16  5798.48  493.577  762.731  766.443  4729.19  4798.72  9899.13  9903.24  2349.42
   388.3459  5579.78  5386.17  510.394  788.234  792.28  4328.3  4391.92  9051.03  9054.64  2184.27
   388.5965  5210.42  5028.06  528.08  815.116  819.488  3974.98  4033.38  8304.53  8307.71  2040.37
   388.8471  4888.95  4716.28  546.699  843.466  848.158  3662.18  3715.97  7644.47  7647.29  1914.68
   389.0977  4608.71  4444.39  566.315  873.378  878.39  3384.09  3433.78  7058.35  7060.85  1804.72
   389.3484  4364.19  4207.05  587.001  904.962  910.294  3135.88  3181.89  6535.75  6538  1708.4
   389.5990  4150.84  3999.85  608.836  938.333  943.988  2913.49  2956.22  6068.03  6070.05  1624.02
   389.8496  3964.89  3819.12  631.906  973.623  979.606  2713.54  2753.32  5647.91  5649.73  1550.14
   390.1003  3803.17  3661.82  656.306  1010.97  1017.29  2533.16  2570.27  5269.25  5270.9  1485.56
   390.3509  3663.06  3525.4  682.139  1050.54  1057.2  2369.92  2404.61  4926.87  4928.37  1429.29
   390.6015  3542.36  3407.73  709.518  1092.5  1099.52  2221.74  2254.25  4616.35  4617.72  1380.49
   390.8521  3439.27  3307.04  738.57  1137.04  1144.43  2086.87  2117.37  4333.91  4335.17  1338.46
   391.1028  3352.24  3221.86  769.432  1184.37  1192.15  1963.76  1992.45  4076.32  4077.47  1302.61
   391.3534  3280.03  3150.96  802.257  1234.73  1242.91  1851.12  1878.13  3840.77  3841.84  1272.45
   391.6040  3221.62  3093.35  837.213  1288.37  1296.98  1747.8  1773.28  3624.86  3625.85  1247.6
   391.8546  3176.18  3048.23  874.488  1345.58  1354.64  1652.81  1676.88  3426.48  3427.4  1227.72
   392.1053  3143.07  3014.97  914.29  1406.69  1416.22  1565.3  1588.06  3243.82  3244.68  1212.57
   392.3559  3121.79  2993.08  956.851  1472.04  1482.07  1484.5  1506.06  3075.26  3076.07  1201.94
   392.6065  3112.02  2982.24  1002.43  1542.03  1552.59  1409.76  1430.2  2919.42  2920.17  1195.69
   392.8571  3113.55  2982.24  1051.32  1617.12  1628.24  1340.48  1359.89  2775.05  2775.76  1193.75
   393.1078  3126.32  2993.01  1103.83  1697.79  1709.52  1276.17  1294.6  2641.06  2641.73  1196.07
   393.3584  3150.4  3014.6  1160.35  1784.61  1796.98  1216.35  1233.88  2516.51  2517.14  1202.66
   393.6090  3185.98  3047.2  1221.27  1878.21  1891.27  1160.62  1177.31  2400.51  2401.11  1213.59
   393.8596  3233.39  3091.1  1287.07  1979.3  1993.12  1108.63  1124.53  2292.33  2292.9  1228.97
   394.1103  3293.11  3146.76  1358.28  2088.71  2103.33  1060.04  1075.21  2191.28  2191.82  1248.96
   394.3609  3365.78  3214.77  1435.48  2207.34  2222.83  1014.58  1029.05  2096.75  2097.27  1273.79
   394.6115  3452.19  3295.87  1519.38  2336.26  2352.7  971.986  985.798  2008.19  2008.69  1303.73
   394.8622  3553.31  3391  1610.75  2476.68  2494.13  932.021  945.214  1925.13  1925.61  1339.15
   395.1128  3670.35  3501.28  1710.5  2629.96  2648.54  894.48  907.086  1847.12  1847.58  1380.47
   395.3634  3804.75  3628.08  1819.66  2797.73  2817.52  859.174  871.223  1773.77  1774.21  1428.21
   395.6140  3958.2  3773.01  1939.44  2981.81  3002.94  825.934  837.452  1704.71  1705.14  1482.99
   395.8647  4132.77  3938  2071.23  3184.36  3206.95  794.605  805.616  1639.63  1640.04  1545.56
   396.1153  4330.86  4125.36  2216.67  3407.88  3432.1  765.048  775.575  1578.23  1578.63  1616.79
   396.3659  4555.36  4337.82  2377.66  3655.32  3681.32  737.137  747.198  1520.25  1520.63  1697.74
   396.6165  4809.7  4578.62  2556.45  3930.11  3958.1  710.758  720.37  1465.43  1465.81  1789.65
   396.8672  5097.96  4851.64  2755.69  4236.34  4266.54  685.806  694.983  1413.57  1413.94  1894.01
   397.1178  5425.04  5161.53  2978.54  4578.87  4611.54  662.188  670.941  1364.47  1364.82  2012.62
   397.3684  5796.8  5513.83  3228.77  4963.48  4998.92  639.818  648.157  1317.93  1318.28  2147.6
   397.6190  6220.3  5915.27  3510.9  5397.11  5435.68  618.618  626.55  1273.81  1274.14  2301.55
   397.8697  6704.1  6373.94  3830.37  5888.15  5930.26  598.52  606.047  1231.93  1232.26  2477.58
   398.1203  7258.6  6899.72  4193.81  6446.78  6492.91  579.461  586.584  1192.18  1192.49  2679.49
   398.3709  7896.49  7504.66  4609.28  7085.38  7136.11  561.384  568.101  1154.42  1154.73  2911.94
   398.6216  8633.39  8203.57  5086.68  7819.17  7875.18  544.242  550.545  1118.55  1118.85  3180.61
   398.8722  9488.52  9014.69  5638.19  8666.88  8728.99  527.993  533.87  1084.46  1084.75  3492.54
   399.1228  10485.7  9960.66  6278.9  9651.7  9720.9  512.601  518.034  1052.07  1052.36  3856.45
   399.3734  11654.7  11069.6  7027.57  10802.5  10879.9  498.038  503.004  1021.31  1021.58  4283.17
   399.6241  13032.3  12376.5  7907.56  12155.1  12242.3  484.285  488.75  992.105  992.373  4786.2
   399.8747  14664.5  13925.2  8947.94  13754.2  13852.9  471.33  475.253  964.413  964.674  5382.36
   400.1253  16608.6  15769.7  10184.8  15655.4  15767.8  459.173  462.499  938.198  938.45  6092.53
   400.3759  18934.5  17976.6  11662.5  17926.8  18055.5  447.821  450.481  913.438  913.681  6942.37
   400.6266  21726.9  20626.2  13434.5  20650.4  20798.7  437.297  439.203  890.128  890.361  7962.76
   400.8772  25083.4  23811  15562.3  23921.1  24092.9  427.631  428.676  868.275  868.497  9189.4
   401.1278  29108.5  27630.3  18112.1  27840.3  28040.3  418.86  418.914  847.898  848.107  10660.5
   401.3784  33895.7  32172.9  21142.8  32498.9  32732.4  411.017  409.93  829.01  829.204  12410.2
   401.6291  39489.2  37480.6  24682.6  37939.8  38212.4  404.104  401.719  811.591  811.77  14454.8
   401.8797  45813.7  43481.9  28683.7  44089.9  44406.7  398.052  394.226  795.542  795.704  16766.6
   402.1303  52568.6  49891.6  32956.4  50657.4  51021.4  392.654  387.305  780.604  780.748  19235.8
   402.3810  59118  56106.5  37099.1  57025.1  57434.9  387.496  380.672  766.278  766.405  21629.9
   402.6316  64475.8  61190.5  40488.9  62235.6  62682.9  381.949  373.897  751.821  751.932  23588.4
   402.8822  67526.7  64085.4  42421.5  65206.2  65674.9  375.301  366.499  736.395  736.497  24703.4
   403.1328  67499.7  64059.7  42410.1  65188.6  65657.1  367.061  358.141  719.414  719.514  24693.2
   403.3835  64399.8  61117.9  40457.6  62187.5  62634.4  357.215  348.809  700.85  700.956  23559.5
   403.6341  59004.5  55998  37055.3  56957.8  57367.2  346.231  338.813  681.23  681.347  21586.6
   403.8847  52430  49759  32908  50583.1  50946.6  334.787  328.602  661.328  661.458  19182.6
   404.1353  45659.3  43333.8  28636.7  44017.5  44333.9  323.481  318.573  641.821  641.965  16706.9
   404.3860  39323.8  37321.7  24640  37874.3  38146.5  312.693  308.976  623.138  623.295  14390.3
   404.6366  33721  32004.8  21105.9  32442.1  32675.2  302.594  299.923  605.468  605.636  12341.5
   404.8872  28924.3  27452.9  18080.8  27792.1  27991.8  293.221  291.433  588.841  589.019  10587.6
   405.1378  24888.5  23623.1  15536.1  23880.8  24052.3  284.535  283.479  573.205  573.391  9111.79
   405.3885  21519.9  20426.4  13412.7  20616.8  20764.9  276.468  276.011  558.472  558.665  7879.93
   405.6391  18713.9  17763.6  11644.4  17898.8  18027.3  268.947  268.977  544.549  544.747  6853.78
   405.8897  16372.9  15542  10169.7  15632  15744.2  261.903  262.326  531.349  531.551  5997.64
   406.1404  14412.5  13681.6  8935.22  13734.5  13833.1  255.274  256.017  518.793  518.998  5280.68
   406.3910  12762.8  12116  7896.82  12138.4  12225.5  249.011  250.012  506.816  507.024  4677.27
   406.6416  11366.6  10791  7018.47  10788.3  10865.7  243.07  244.281  495.362  495.572  4166.59
   406.8922  10178  9663  6271.13  9639.52  9708.73  237.416  238.796  484.384  484.596  3731.82
   407.1429  9160.19  8697.04  5631.52  8656.37  8718.52  232.02  233.536  473.842  474.055  3359.47
   407.3935  8283.45  7864.98  5080.92  7810.05  7866.11  226.856  228.483  463.701  463.916  3038.72
   407.6441  7523.98  7144.19  4604.28  7077.41  7128.2  221.906  223.621  453.934  454.149  2760.85
   407.8947  6862.5  6516.4  4189.45  6439.76  6485.98  217.15  218.935  444.513  444.729  2518.81
   408.1454  6283.39  5966.77  3826.55  5881.94  5924.15  212.575  214.415  435.418  435.635  2306.89
   408.3960  5773.89  5483.21  3507.53  5391.58  5430.26  208.166  210.049  426.628  426.845  2120.42
   408.6466  5323.55  5055.78  3225.79  4958.52  4994.09  203.913  205.829  418.126  418.344  1955.59
   408.8972  4923.75  4676.32  2975.89  4574.4  4607.21  199.807  201.746  409.897  410.115  1809.24
   409.1479  4567.34  4338.03  2753.32  4232.29  4262.64  195.837  197.793  401.926  402.144  1678.76
   409.3985  4248.36  4035.27  2554.33  3926.41  3954.56  191.996  193.963  394.201  394.418  1561.97
   409.6491  3961.83  3763.29  2375.75  3651.92  3678.1  188.277  190.25  386.709  386.926  1457.05
   409.8997  3703.55  3518.13  2214.95  3404.75  3429.15  184.675  186.648  379.44  379.658  1362.46
   410.1504  3469.95  3296.39  2069.68  3181.44  3204.25  181.182  183.153  372.384  372.602  1276.9
   410.4010  3258.03  3095.22  1938.03  2979.08  3000.43  177.794  179.759  365.532  365.749  1199.27
   410.6516  3065.19  2912.16  1818.38  2795.17  2815.19  174.506  176.463  358.874  359.092  1128.62
   410.9023  2889.23  2745.13  1709.33  2627.54  2646.37  171.313  173.26  352.404  352.621  1064.14
   411.1529  2728.25  2592.31  1609.68  2474.37  2492.1  168.211  170.146  346.113  346.33  1005.14
   411.4035  2580.6  2452.13  1518.4  2334.06  2350.78  165.196  167.118  339.995  340.212  951.024
   411.6541  2444.85  2323.25  1434.58  2205.22  2221.02  162.265  164.172  334.042  334.258  901.258
   411.9048  2319.75  2204.49  1357.44  2086.66  2101.6  159.414  161.305  328.248  328.464  855.392
   412.1554  2204.23  2094.81  1286.3  1977.31  1991.46  156.641  158.515  322.608  322.824  813.029
   412.4060  2097.33  1993.31  1220.56  1876.25  1889.68  153.941  155.797  317.115  317.331  773.82
   412.6566  1998.2  1899.2  1159.69  1782.68  1795.44  151.312  153.15  311.765  311.98  737.459
   412.9073  1906.12  1811.77  1103.22  1695.88  1708.02  148.752  150.572  306.552  306.767  703.675
   413.1579  1820.43  1730.4  1050.75  1615.22  1626.78  146.258  148.059  301.471  301.686  672.23
   413.4085  1740.55  1654.55  1001.9  1540.14  1551.15  143.828  145.609  296.518  296.733  642.912
   413.6591  1665.96  1583.73  956.355  1470.13  1480.64  141.458  143.22  291.688  291.903  615.531
   413.9098  1596.21  1517.49  913.826  1404.76  1414.8  139.149  140.891  286.978  287.192  589.92
   414.1604  1530.87  1455.44  874.054  1343.62  1353.23  136.896  138.618  282.382  282.597  565.929
   414.4110  1469.59  1397.25  836.806  1286.37  1295.56  134.698  136.401  277.899  278.112  543.421
   414.6617  1412.03  1342.59  801.874  1232.67  1241.48  132.554  134.236  273.522  273.736  522.277
   414.9123  1357.9  1291.18  769.072  1182.25  1190.7  130.461  132.124  269.25  269.464  502.388
   415.1629  1306.93  1242.76  738.232  1134.84  1142.95  128.418  130.061  265.079  265.292  483.654
   415.4135  1258.86  1197.11  709.199  1090.22  1098  126.423  128.047  261.006  261.219  465.988
   415.6642  1213.49  1154.02  681.838  1048.16  1055.64  124.475  126.08  257.027  257.239  449.309
   415.9148  1170.62  1113.29  656.022  1008.47  1015.68  122.573  124.157  253.139  253.352  433.543
   416.1654  1130.05  1074.76  631.637  970.991  977.925  120.714  122.279  249.341  249.553  418.624
   416.4160  1091.64  1038.27  608.581  935.55  942.23  118.897  120.443  245.628  245.84  404.493
   416.6667  1055.22  1003.68  586.759  902.006  908.446  117.121  118.649  241.999  242.211  391.093
   416.9173  1020.65  970.845  566.086  870.227  876.439  115.385  116.895  238.451  238.662  378.375
   417.1679  987.825  939.658  546.481  840.091  846.087  113.688  115.179  234.981  235.192  366.292
   417.4185  956.615  910.008  527.873  811.488  817.278  112.029  113.501  231.588  231.799  354.802
   417.6692  926.915  881.792  510.196  784.315  789.911  110.405  111.86  228.268  228.479  343.866
   417.9198  898.63  854.919  493.389  758.479  763.89  108.817  110.254  225.02  225.231  333.449
   418.1704  871.669  829.304  477.396  733.895  739.13  107.263  108.683  221.842  222.053  323.518
   418.4211  845.951  804.868  462.165  710.483  715.55  105.743  107.145  218.732  218.942  314.042
   418.6717  821.398  781.539  447.649  688.169  693.077  104.255  105.64  215.688  215.897  304.994
   418.9223  797.94  759.249  433.804  666.888  671.642  102.798  104.166  212.707  212.916  296.348
   419.1729  775.512  737.938  420.59  646.575  651.184  101.371  102.723  209.788  209.997  288.08
   419.4236  754.054  717.547  407.969  627.173  631.643  99.9746  101.31  206.93  207.139  280.168
   419.6742  733.509  698.024  395.905  608.629  612.967  98.6066  99.926  204.131  204.34  272.591
   419.9248  713.826  679.32  384.367  590.893  595.104  97.2667  98.5702  201.389  201.597  265.33
   420.1754  694.957  661.387  373.325  573.919  578.008  95.954  97.2419  198.702  198.91  258.368
   420.4261  676.856  644.184  362.751  557.665  561.637  94.6678  95.9403  196.07  196.277  251.688
   420.6767  659.481  627.672  352.618  542.089  545.95  93.4074  94.6648  193.49  193.697  245.275
   420.9273  642.794  611.812  342.903  527.155  530.909  92.1721  93.4146  190.961  191.168  239.115
   421.1779  626.758  596.57  333.583  512.828  516.48  90.9612  92.189  188.482  188.689  233.193
   421.4286  611.339  581.915  324.637  499.076  502.629  89.7742  90.9875  186.052  186.259  227.498
   421.6792  596.506  567.815  316.045  485.869  489.327  88.6103  89.8093  183.669  183.875  222.019
   421.9298  582.227  554.243  307.789  473.177  476.545  87.4689  88.6539  181.332  181.538  216.743
   422.1805  568.476  541.171  299.852  460.976  464.256  86.3495  87.5208  179.04  179.246  211.662
   422.4311  555.227  528.576  292.217  449.239  452.436  85.2516  86.4092  176.792  176.998  206.764
   422.6817  542.454  516.434  284.869  437.944  441.06  84.1745  85.3187  174.586  174.792  202.042
   422.9323  530.136  504.723  277.795  427.069  430.107  83.1177  84.2488  172.422  172.627  197.487
   423.1830  518.249  493.422  270.98  416.593  419.556  82.0808  83.1989  170.298  170.503  193.091
   423.4336  506.774  482.513  264.412  406.497  409.388  81.0632  82.1685  168.214  168.419  188.846
   423.6842  495.692  471.976  258.08  396.763  399.584  80.0645  81.1572  166.169  166.373  184.745
   423.9348  484.984  461.795  251.972  387.374  390.128  79.0841  80.1644  164.161  164.365  180.783
   424.1855  474.633  451.954  246.078  378.314  381.003  78.1217  79.1898  162.189  162.394  176.952
   424.4361  464.625  442.437  240.388  369.567  372.194  77.1768  78.2329  160.254  160.458  173.246
   424.6867  454.942  433.231  234.893  361.119  363.686  76.249  77.2932  158.353  158.557  169.661
   424.9373  445.572  424.32  229.584  352.958  355.466  75.3378  76.3704  156.486  156.69  166.19
   425.1880  436.5  415.693  224.452  345.069  347.521  74.4429  75.4641  154.653  154.856  162.83
   425.4386  427.713  407.338  219.491  337.442  339.839  73.5638  74.5738  152.852  153.055  159.574
   425.6892  419.2  399.242  214.691  330.064  332.409  72.7003  73.6991  151.083  151.286  156.42
   425.9398  410.95  391.396  210.047  322.926  325.219  71.8519  72.8398  149.345  149.548  153.362
   426.1905  402.95  383.788  205.553  316.016  318.26  71.0183  71.9954  147.637  147.839  150.396
   426.4411  395.191  376.409  201.2  309.325  311.521  70.1992  71.1657  145.958  146.161  147.519
   426.6917  387.664  369.249  196.984  302.844  304.994  69.3941  70.3502  144.309  144.511  144.728
   426.9424  380.358  362.301  192.899  296.564  298.67  68.6029  69.5487  142.687  142.889  142.018
   427.1930  373.266  355.555  188.94  290.478  292.539  67.8251  68.7608  141.094  141.295  139.387
   427.4436  366.378  349.003  185.101  284.577  286.596  67.0605  67.9862  139.527  139.728  136.831
   427.6942  359.686  342.638  181.378  278.853  280.832  66.3088  67.2246  137.986  138.187  134.347
   427.9449  353.184  336.453  177.766  273.3  275.239  65.5696  66.4758  136.471  136.672  131.934
   428.1955  346.864  330.441  174.26  267.911  269.812  64.8428  65.7395  134.982  135.183  129.587
   428.4461  340.719  324.595  170.857  262.68  264.543  64.128  65.0153  133.517  133.717  127.305
   428.6967  334.742  318.91  167.553  257.6  259.427  63.425  64.303  132.076  132.276  125.085
   428.9474  328.928  313.378  164.343  252.666  254.458  62.7334  63.6023  130.658  130.859  122.926
   429.1980  323.27  307.995  161.225  247.873  249.63  62.0532  62.9131  129.264  129.464  120.823
   429.4486  317.762  302.756  158.195  243.214  244.938  61.3839  62.235  127.892  128.092  118.777
   429.6992  312.4  297.654  155.249  238.685  240.377  60.7254  61.5678  126.543  126.742  116.784
   429.9499  307.178  292.685  152.384  234.282  235.942  60.0775  60.9113  125.214  125.414  114.843
   430.2005  302.091  287.845  149.598  229.999  231.629  59.4399  60.2653  123.907  124.106  112.951
   430.4511  297.135  283.129  146.888  225.832  227.432  58.8124  59.6294  122.621  122.82  111.108
   430.7018  292.304  278.533  144.25  221.778  223.349  58.1948  59.0036  121.355  121.554  109.311
   430.9524  287.595  274.052  141.683  217.831  219.374  57.5869  58.3876  120.109  120.307  107.56
   431.2030  283.003  269.682  139.184  213.989  215.505  56.9885  57.7812  118.882  119.08  105.851
   431.4536  278.525  265.421  136.75  210.247  211.736  56.3994  57.1842  117.674  117.872  104.185
   431.7043  274.156  261.264  134.379  206.603  208.066  55.8193  56.5964  116.485  116.682  102.559
   431.9549  269.894  257.208  132.07  203.053  204.49  55.2482  56.0177  115.314  115.511  100.972
   432.2055  265.734  253.249  129.819  199.593  201.006  54.6858  55.4477  114.16  114.358  99.4234
   432.4561  261.674  249.385  127.626  196.22  197.61  54.1319  54.8864  113.025  113.222  97.9113
   432.7068  257.709  245.611  125.487  192.933  194.299  53.5864  54.3336  111.906  112.103  96.4348
   432.9574  253.838  241.927  123.402  189.727  191.07  53.0491  53.7892  110.804  111.001  94.9926
   433.2080  250.056  238.328  121.368  186.601  187.921  52.5199  53.2528  109.719  109.916  93.5838
   433.4586  246.362  234.812  119.384  183.551  184.849  51.9986  52.7245  108.65  108.846  92.2072
   433.7093  242.752  231.376  117.448  180.575  181.852  51.485  52.2039  107.597  107.793  90.8619
   433.9599  239.224  228.018  115.559  177.671  178.928  50.9789  51.6911  106.559  106.755  89.5469
   434.2105  235.776  224.735  113.715  174.836  176.073  50.4803  51.1857  105.536  105.732  88.2613
   434.4612  232.404  221.526  111.915  172.069  173.286  49.989  50.6878  104.529  104.724  87.0042
   434.7118  229.107  218.388  110.157  169.366  170.564  49.5048  50.1971  103.536  103.731  85.7747
   434.9624  225.883  215.318  108.441  166.727  167.906  49.0276  49.7134  102.557  102.752  84.572
   435.2130  222.728  212.315  106.764  164.149  165.31  48.5573  49.2368  101.592  101.787  83.3954
   435.4637  219.642  209.378  105.125  161.63  162.773  48.0938  48.7669  100.641  100.836  82.244
   435.7143  216.622  206.503  103.524  159.169  160.294  47.6368  48.3038  99.7039  99.8984  81.1171
   435.9649  213.667  203.689  101.96  156.764  157.872  47.1863  47.8472  98.7798  98.9741  80.014
   436.2155  210.773  200.934  100.43  154.412  155.503  46.7422  47.397  97.8688  98.0629  78.9341
   436.4662  207.941  198.238  98.9348  152.113  153.188  46.3044  46.9532  96.9705  97.1644  77.8766
   436.7168  205.167  195.597  97.4725  149.865  150.924  45.8726  46.5156  96.0847  96.2784  76.841
   436.9674  202.451  193.011  96.0424  147.667  148.71  45.4469  46.0841  95.2113  95.4048  75.8266
   437.2180  199.79  190.477  94.6435  145.516  146.544  45.0271  45.6586  94.35  94.5432  74.8329
   437.4687  197.184  187.996  93.275  143.412  144.425  44.613  45.2389  93.5005  93.6935  73.8592
   437.7193  194.63  185.564  91.9359  141.353  142.352  44.2047  44.825  92.6626  92.8555  72.9051
   437.9699  192.127  183.181  90.6253  139.339  140.323  43.8019  44.4167  91.8362  92.0289  71.97
   438.2206  189.674  180.845  89.3426  137.367  138.337  43.4046  44.014  91.021  91.2134  71.0533
   438.4712  187.27  178.555  88.087  135.436  136.392  43.0127  43.6168  90.2168  90.4091  70.1546
   438.7218  184.912  176.311  86.8575  133.546  134.489  42.6261  43.2249  89.4234  89.6155  69.2735
   438.9724  182.601  174.11  85.6537  131.695  132.625  42.2447  42.8382  88.6407  88.8325  68.4094
   439.2231  180.334  171.951  84.4746  129.883  130.8  41.8684  42.4568  87.8684  88.06  67.5618
   439.4737  178.111  169.834  83.3198  128.107  129.011  41.4971  42.0804  87.1063  87.2978  66.7305
   439.7243  175.931  167.757  82.1884  126.368  127.26  41.1307  41.7089  86.3543  86.5456  65.9149
   439.9749  173.791  165.72  81.0799  124.664  125.543  40.7691  41.3424  85.6123  85.8033  65.1147
   440.2256  171.692  163.721  79.9937  122.994  123.862  40.4123  40.9807  84.8799  85.0707  64.3294
   440.4762  169.632  161.759  78.9291  121.357  122.213  40.0601  40.6237  84.1571  84.3477  63.5587
   440.7268  167.611  159.834  77.8857  119.753  120.598  39.7126  40.2714  83.4436  83.6341  62.8022
   440.9774  165.626  157.944  76.8628  118.18  119.014  39.3695  39.9236  82.7394  82.9297  62.0595
   441.2281  163.678  156.089  75.8599  116.639  117.461  39.0309  39.5803  82.0443  82.2343  61.3304
   441.4787  161.766  154.267  74.8765  115.127  115.939  38.6966  39.2415  81.358  81.5479  60.6144
   441.7293  159.888  152.478  73.912  113.644  114.445  38.3666  38.9069  80.6805  80.8702  59.9113
   441.9799  158.044  150.722  72.9661  112.19  112.981  38.0408  38.5766  80.0117  80.2011  59.2208
   442.2306  156.233  148.997  72.0382  110.763  111.544  37.7191  38.2505  79.3513  79.5405  58.5425
   442.4812  154.454  147.302  71.1279  109.364  110.135  37.4015  37.9286  78.6992  78.8882  57.8761
   442.7318  152.706  145.637  70.2347  107.991  108.752  37.0879  37.6106  78.0552  78.2441  57.2214
   442.9825  150.989  144.002  69.3583  106.643  107.395  36.7782  37.2967  77.4194  77.608  56.5781
   443.2331  149.301  142.394  68.4981  105.321  106.063  36.4724  36.9867  76.7914  76.9799  55.946
   443.4837  147.643  140.815  67.6538  104.023  104.756  36.1704  36.6805  76.1712  76.3595  55.3246
   443.7343  146.014  139.262  66.8251  102.748  103.472  35.8721  36.3781  75.5587  75.7467  54.7139
   443.9850  144.412  137.737  66.0114  101.498  102.213  35.5775  36.0794  74.9537  75.1415  54.1136
   444.2356  142.837  136.237  65.2125  100.269  100.976  35.2866  35.7844  74.3561  74.5437  53.5233
   444.4862  141.289  134.762  64.4281  99.0633  99.7612  34.9991  35.493  73.7657  73.9532  52.943
   444.7368  139.767  133.312  63.6577  97.8789  98.5683  34.7152  35.2052  73.1825  73.3698  52.3723
   444.9875  138.271  131.886  62.901  96.7156  97.3967  34.4347  34.9208  72.6064  72.7935  51.8111
   445.2381  136.799  130.484  62.1577  95.5728  96.2459  34.1576  34.6398  72.0372  72.2241  51.2592
   445.4887  135.351  129.105  61.4275  94.4503  95.1154  33.8838  34.3623  71.4749  71.6616  50.7162
   445.7393  133.928  127.748  60.7101  93.3473  94.0046  33.6133  34.088  70.9192  71.1057  50.1821
   445.9900  132.527  126.413  60.0052  92.2636  92.9132  33.3461  33.8171  70.3702  70.5565  49.6567
   446.2406  131.149  125.1  59.3125  91.1986  91.8406  33.082  33.5493  69.8276  70.0137  49.1397
   446.4912  129.793  123.809  58.6317  90.1519  90.7866  32.821  33.2847  69.2915  69.4774  48.6309
   446.7419  128.459  122.537  57.9626  89.1232  89.7505  32.5631  33.0233  68.7616  68.9473  48.1303
   446.9925  127.146  121.286  57.3048  88.1119  88.7321  32.3082  32.7649  68.238  68.4235  47.6376
   447.2431  125.854  120.055  56.6582  87.1178  87.7309  32.0564  32.5095  67.7204  67.9057  47.1526
   447.4937  124.582  118.843  56.0225  86.1404  86.7466  31.8074  32.2571  67.2089  67.394  46.6752
   447.7444  123.33  117.65  55.3974  85.1793  85.7787  31.5614  32.0076  66.7032  66.8882  46.2052
   447.9950  122.098  116.476  54.7827  84.2343  84.8269  31.3182  31.761  66.2034  66.3882  45.7425
   448.2456  120.884  115.32  54.1781  83.3048  83.8909  31.0777  31.5173  65.7094  65.8939  45.2869
   448.4962  119.69  114.181  53.5835  82.3907  82.9702  30.8401  31.2763  65.2209  65.4053  44.8383
   448.7469  118.513  113.06  52.9987  81.4915  82.0647  30.6052  31.0381  64.7381  64.9222  44.3965
   448.9975  117.355  111.956  52.4233  80.6069  81.1739  30.3729  30.8026  64.2607  64.4447  43.9615
   449.2481  116.214  110.869  51.8573  79.7367  80.2975  30.1433  30.5698  63.7887  63.9725  43.5329
   449.4987  115.09  109.798  51.3004  78.8805  79.4352  29.9162  30.3396  63.322  63.5056  43.1108
   449.7494  113.983  108.743  50.7524  78.038  78.5867  29.6917  30.112  62.8606  63.044  42.6949
   450.0000  112.892  107.703  50.2132  77.2089  77.7517  29.4698  29.887  62.4043  62.5875  42.2853